timestamp;subject_id;activity;label;seq;ax;ay;az;gx;gy;gz
1200091;1;11;1;2254;-699;3848;-1205;-157;-150;-96
1200101;1;11;1;2254;-673;3857;-1215;-167;-163;-76
1200111;1;11;1;2254;-690;3851;-1228;-174;-154;-58
1200121;1;11;1;2254;-671;3834;-1213;-167;-143;-52
1200131;1;11;1;2254;-682;3838;-1214;-148;-124;-49
1200141;1;11;1;2254;-703;3803;-1190;-125;-117;-70
1200151;1;11;1;2254;-711;3784;-1192;-111;-123;-92
1200161;1;11;1;2254;-726;3810;-1214;-106;-120;-111
1200171;1;11;1;2254;-744;3846;-1196;-132;-94;-100
1200181;1;11;1;2254;-720;3861;-1207;-157;-90;-81
1200191;1;11;1;2254;-689;3889;-1227;-173;-88;-59
1200201;1;11;1;2254;-699;3869;-1235;-167;-85;-35
1200211;1;11;1;2254;-683;3850;-1199;-164;-56;-37
1200221;1;11;1;2254;-687;3828;-1201;-171;-33;-42
1200231;1;11;1;2254;-684;3811;-1192;-173;-24;-59
1200241;1;11;1;2254;-696;3810;-1164;-178;-17;-77
1200251;1;11;1;2254;-692;3822;-1156;-163;-30;-100
1200261;1;11;1;2254;-694;3830;-1194;-154;-54;-122
1200271;1;11;1;2254;-707;3835;-1183;-146;-74;-137
1200281;1;11;1;2254;-700;3854;-1187;-139;-83;-127
1200291;1;11;1;2254;-713;3865;-1200;-144;-88;-114
1200301;1;11;1;2254;-704;3850;-1209;-136;-103;-104
1200311;1;11;1;2254;-715;3834;-1229;-138;-92;-100
1200321;1;11;1;2254;-714;3815;-1220;-149;-47;-105
1200331;1;11;1;2254;-707;3837;-1213;-153;-27;-112
1200341;1;11;1;2254;-708;3850;-1205;-174;-17;-103
1200351;1;11;1;2254;-720;3870;-1209;-198;8;-83
1200361;1;11;1;2254;-712;3854;-1197;-213;14;-65
1200371;1;11;1;2254;-704;3853;-1194;-214;12;-62
1200381;1;11;1;2254;-707;3847;-1177;-189;-10;-68
1200391;1;11;1;2254;-714;3831;-1161;-186;-29;-72
1200401;1;11;1;2254;-720;3813;-1170;-177;-38;-76
1200411;1;11;1;2254;-712;3830;-1172;-168;-66;-83
1200421;1;11;1;2254;-689;3837;-1191;-160;-77;-85
1200431;1;11;1;2254;-699;3838;-1208;-168;-63;-81
1200441;1;11;1;2254;-691;3837;-1224;-176;-48;-77
1200451;1;11;1;2254;-709;3839;-1193;-182;-21;-60
1200461;1;11;1;2254;-709;3856;-1188;-191;6;-44
1200471;1;11;1;2254;-702;3860;-1174;-202;15;-36
1200481;1;11;1;2254;-705;3856;-1177;-188;9;-32
1200491;1;11;1;2254;-701;3834;-1174;-185;0;-39
1200501;1;11;1;2254;-701;3837;-1164;-188;-10;-39
1200511;1;11;1;2254;-694;3842;-1177;-188;-21;-44
1200521;1;11;1;2254;-698;3838;-1174;-183;-19;-43
1200531;1;11;1;2254;-689;3843;-1192;-187;-28;-42
1200541;1;11;1;2254;-693;3840;-1204;-185;-56;-39
1200551;1;11;1;2254;-709;3859;-1186;-189;-86;-31
1200561;1;11;1;2254;-705;3845;-1165;-200;-102;-23
1200571;1;11;1;2254;-703;3838;-1184;-196;-93;-24
1200581;1;11;1;2254;-702;3825;-1193;-190;-67;-21
1200591;1;11;1;2255;-701;3817;-1191;-184;-39;-29
1200601;1;11;1;2255;-701;3821;-1189;-188;-38;-32
1200611;1;11;1;2255;-710;3845;-1175;-181;-57;-33
1200621;1;11;1;2255;-706;3856;-1178;-172;-91;-33
1200631;1;11;1;2255;-714;3841;-1175;-164;-131;-25
1200641;1;11;1;2255;-693;3846;-1192;-144;-158;-17
1200651;1;11;1;2255;-703;3843;-1177;-140;-173;-4
1200661;1;11;1;2255;-721;3842;-1190;-147;-173;1
1200671;1;11;1;2255;-717;3846;-1195;-160;-144;22
1200681;1;11;1;2255;-708;3844;-1187;-156;-120;38
1200691;1;11;1;2255;-691;3837;-1198;-161;-99;54
1200701;1;11;1;2255;-685;3833;-1211;-178;-72;58
1200711;1;11;1;2255;-685;3824;-1196;-181;-61;56
1200721;1;11;1;2255;-680;3818;-1178;-181;-60;40
1200731;1;11;1;2255;-692;3829;-1187;-185;-66;19
1200741;1;11;1;2255;-697;3840;-1167;-175;-74;-7
1200751;1;11;1;2255;-701;3849;-1158;-176;-60;-16
1200761;1;11;1;2255;-711;3855;-1165;-156;-53;-29
1200771;1;11;1;2255;-693;3857;-1187;-139;-70;-36
1200781;1;11;1;2255;-679;3842;-1188;-126;-98;-38
1200791;1;11;1;2255;-678;3846;-1199;-120;-127;-44
1200801;1;11;1;2255;-664;3835;-1220;-117;-106;-35
1200811;1;11;1;2255;-735;3823;-1223;-104;-59;-56
1200821;1;11;1;2255;-727;3850;-1249;-139;-28;-81
1200831;1;11;1;2255;-685;3848;-1246;-155;-1;-41
1200841;1;11;1;2255;-734;3858;-1228;-106;-20;-43
1200851;1;11;1;2255;-805;3820;-1291;-51;-131;-126
1200861;1;11;1;2255;-920;3770;-1299;50;-287;-237
1200871;1;11;1;2255;-964;3772;-1218;89;-361;-259
1200881;1;11;1;2255;-895;3734;-1130;45;-304;-115
1200891;1;11;1;2255;-823;3712;-1072;-44;-189;51
1200901;1;11;1;2255;-756;3648;-936;-122;-47;253
1200911;1;11;1;2255;-822;3537;-900;-54;-56;375
1200921;1;11;1;2255;-891;3380;-922;215;-245;226
1200931;1;11;1;2255;-800;3307;-954;468;-409;-70
1200941;1;11;1;2255;-598;3332;-910;782;-559;-460
1200951;1;11;1;2255;-459;3501;-954;992;-652;-774
1200961;1;11;1;2255;-392;3622;-916;1040;-833;-824
1200971;1;11;1;2255;-497;3805;-1056;1082;-1053;-670
1200981;1;11;1;2255;-523;4079;-1105;1005;-1182;-321
1200991;1;11;1;2255;-390;4459;-1128;802;-1207;155
1201001;1;11;1;2255;-221;4661;-1240;520;-922;707
1201011;1;11;1;2255;0;4767;-1310;253;-436;1221
1201021;1;11;1;2255;106;4644;-1368;132;67;1475
1201031;1;11;1;2255;87;4488;-1447;102;391;1431
1201041;1;11;1;2255;-54;4298;-1515;6;564;1077
1201051;1;11;1;2255;-122;4145;-1391;-231;631;676
1201061;1;11;1;2255;-201;3942;-1213;-443;638;378
1201071;1;11;1;2255;-272;3786;-972;-523;565;192
1201081;1;11;1;2255;-410;3697;-796;-455;350;31
1201091;1;11;1;2256;-498;3698;-743;-357;-5;-145
1201101;1;11;1;2256;-501;3728;-703;-245;-384;-340
1201111;1;11;1;2256;-563;3681;-753;-98;-659;-554
1201121;1;11;1;2256;-626;3641;-914;80;-842;-779
1201131;1;11;1;2256;-777;3597;-1108;249;-912;-986
1201141;1;11;1;2256;-826;3653;-1205;312;-912;-1028
1201151;1;11;1;2256;-805;3754;-1264;198;-763;-832
1201161;1;11;1;2256;-743;3780;-1248;105;-534;-547
1201171;1;11;1;2256;-714;3793;-1170;122;-281;-314
1201181;1;11;1;2256;-690;3870;-1167;193;-135;-206
1201191;1;11;1;2256;-667;3975;-1219;242;-71;-190
1201201;1;11;1;2256;-685;4051;-1253;247;-146;-236
1201211;1;11;1;2256;-711;4065;-1324;208;-209;-281
1201221;1;11;1;2256;-693;4035;-1316;79;-241;-214
1201231;1;11;1;2256;-670;3924;-1294;-49;-204;-77
1201241;1;11;1;2256;-624;3824;-1245;-178;-131;52
1201251;1;11;1;2256;-596;3759;-1103;-289;-114;152
1201261;1;11;1;2256;-583;3663;-978;-329;-179;219
1201271;1;11;1;2256;-571;3570;-913;-312;-301;234
1201281;1;11;1;2256;-558;3486;-904;-241;-450;137
1201291;1;11;1;2256;-559;3463;-955;-151;-686;-63
1201301;1;11;1;2256;-526;3528;-1048;-82;-978;-332
1201311;1;11;1;2256;-446;3655;-1166;-79;-1263;-550
1201321;1;11;1;2256;-425;3732;-1321;-151;-1433;-666
1201331;1;11;1;2256;-421;3735;-1388;-187;-1524;-732
1201341;1;11;1;2256;-534;3698;-1492;-127;-1563;-805
1201351;1;11;1;2256;-732;3745;-1600;-30;-1503;-862
1201361;1;11;1;2256;-866;3885;-1577;6;-1335;-895
1201371;1;11;1;2256;-937;3912;-1591;58;-1130;-902
1201381;1;11;1;2256;-1033;3870;-1590;230;-989;-901
1201391;1;11;1;2256;-1102;3807;-1564;479;-866;-905
1201401;1;11;1;2256;-1115;3783;-1525;724;-737;-919
1201411;1;11;1;2256;-1085;3853;-1456;849;-601;-848
1201421;1;11;1;2256;-931;3946;-1384;806;-483;-619
1201431;1;11;1;2256;-666;3951;-1380;687;-423;-250
1201441;1;11;1;2256;-537;3878;-1493;607;-441;82
1201451;1;11;1;2256;-464;3807;-1591;610;-492;237
1201461;1;11;1;2256;-488;3846;-1619;621;-619;242
1201471;1;11;1;2256;-466;3959;-1596;461;-752;314
1201481;1;11;1;2256;-384;4002;-1641;232;-860;433
1201491;1;11;1;2256;-293;3970;-1622;59;-1093;451
1201501;1;11;1;2256;-213;3966;-1593;78;-1416;248
1201511;1;11;1;2256;-118;3967;-1613;224;-1592;-100
1201521;1;11;1;2256;-126;3974;-1663;359;-1607;-406
1201531;1;11;1;2256;-193;3899;-1779;481;-1424;-712
1201541;1;11;1;2256;-279;3838;-1783;565;-1033;-1022
1201551;1;11;1;2256;-389;3796;-1777;596;-694;-1281
1201561;1;11;1;2256;-500;3798;-1720;544;-325;-1444
1201571;1;11;1;2256;-592;3782;-1693;436;-43;-1514
1201581;1;11;1;2256;-690;3767;-1643;350;123;-1527
1201591;1;11;1;2257;-798;3737;-1556;334;120;-1526
1201601;1;11;1;2257;-866;3766;-1502;349;88;-1535
1201611;1;11;1;2257;-895;3759;-1534;290;111;-1462
1201621;1;11;1;2257;-825;3748;-1509;160;138;-1299
1201631;1;11;1;2257;-738;3775;-1463;-28;133;-1098
1201641;1;11;1;2257;-615;3797;-1394;-168;133;-924
1201651;1;11;1;2257;-514;3784;-1282;-188;147;-784
1201661;1;11;1;2257;-492;3727;-1274;-110;250;-676
1201671;1;11;1;2257;-486;3694;-1263;1;337;-587
1201681;1;11;1;2257;-473;3664;-1281;115;300;-544
1201691;1;11;1;2257;-450;3719;-1298;174;192;-523
1201701;1;11;1;2257;-406;3789;-1295;111;70;-427
1201711;1;11;1;2257;-250;3878;-1275;-103;19;-231
1201721;1;11;1;2257;-122;3870;-1342;-344;69;7
1201731;1;11;1;2257;-15;3818;-1416;-559;157;223
1201741;1;11;1;2257;19;3742;-1448;-681;219;385
1201751;1;11;1;2257;-56;3697;-1433;-748;244;513
1201761;1;11;1;2257;-176;3644;-1399;-835;277;666
1201771;1;11;1;2257;-266;3619;-1335;-958;254;818
1201781;1;11;1;2257;-192;3603;-1399;-1171;213;986
1201791;1;11;1;2257;-10;3588;-1464;-1193;291;1041
1201801;1;11;1;2257;189;3646;-1465;-1117;626;951
1201811;1;11;1;2257;295;3707;-1466;-1075;867;837
1201821;1;11;1;2257;140;3740;-1495;-949;824;669
1201831;1;11;1;2257;6;3819;-1496;-742;634;493
1201841;1;11;1;2257;-111;3873;-1532;-432;615;216
1201851;1;11;1;2257;-206;3796;-1591;-67;813;-148
1201861;1;11;1;2257;-423;3776;-1664;214;1161;-460
1201871;1;11;1;2257;-646;3749;-1643;180;1368;-509
1201881;1;11;1;2257;-778;3794;-1654;-107;1330;-284
1201891;1;11;1;2257;-790;3819;-1564;-569;1190;144
1201901;1;11;1;2257;-816;3742;-1486;-967;955;574
1201911;1;11;1;2257;-800;3706;-1377;-1145;634;912
1201921;1;11;1;2257;-796;3656;-1327;-1104;402;1079
1201931;1;11;1;2257;-795;3624;-1224;-761;239;1025
1201941;1;11;1;2257;-845;3601;-1200;-276;-21;794
1201951;1;11;1;2257;-870;3553;-1253;-161;-102;759
1201961;1;11;1;2257;-882;3440;-1283;-220;-137;880
1201971;1;11;1;2257;-968;3321;-1231;-330;-240;1039
1201981;1;11;1;2257;-1023;3239;-1126;-458;-341;1130
1201991;1;11;1;2257;-954;3256;-992;-652;-352;1103
1202001;1;11;1;2257;-842;3295;-983;-711;-342;919
1202011;1;11;1;2257;-668;3296;-1001;-633;-252;738
1202021;1;11;1;2257;-522;3173;-1071;-342;-129;592
1202031;1;11;1;2257;-462;3320;-1092;103;190;516
1202041;1;11;1;2257;-503;3652;-1125;529;580;578
1202051;1;11;1;2257;-661;4182;-1177;972;789;675
1202061;1;11;1;2257;-880;4563;-1201;1098;727;891
1202071;1;11;1;2257;-1219;4597;-1307;921;598;685
1202081;1;11;1;2257;-1459;4313;-1453;854;335;-99
1202091;1;11;1;2258;-1487;4194;-1492;920;98;-1181
1202101;1;11;1;2258;-1230;4295;-1530;727;55;-1875
1202111;1;11;1;2258;-742;4589;-1625;46;99;-1856
1202121;1;11;1;2258;-120;4766;-1786;-821;392;-1173
1202131;1;11;1;2258;176;4988;-1834;-1126;642;-420
1202141;1;11;1;2258;86;5042;-1699;-1149;793;178
1202151;1;11;1;2258;-71;5016;-1675;-866;776;189
1202161;1;11;1;2258;-33;4794;-1853;-559;707;-177
1202171;1;11;1;2258;128;4818;-2047;-430;744;-638
1202181;1;11;1;2258;222;4894;-2055;-831;915;-931
1202191;1;11;1;2258;154;4694;-1891;-1774;1152;-987
1202201;1;11;1;2258;259;4451;-1809;-2660;1359;-1146
1202211;1;11;1;2258;454;4232;-1597;-3445;2002;-1357
1202221;1;11;1;2258;679;4057;-1188;-3777;2926;-1482
1202231;1;11;1;2258;715;3944;-893;-3679;3746;-1461
1202241;1;11;1;2258;632;3805;-736;-3170;4105;-1596
1202251;1;11;1;2258;428;3628;-779;-2324;3956;-2082
1202261;1;11;1;2258;461;3657;-842;-1639;3734;-2648
1202271;1;11;1;2258;626;3535;-1007;-1280;3696;-3157
1202281;1;11;1;2258;581;3223;-1295;-1072;3964;-3546
1202291;1;11;1;2258;93;2806;-1732;-760;4096;-4029
1202301;1;11;1;2258;-83;2768;-2215;-402;3750;-4521
1202311;1;11;1;2258;104;3230;-2231;-512;3875;-4458
1202321;1;11;1;2258;-2;3514;-1867;-942;4176;-3694
1202331;1;11;1;2258;-45;3635;-1261;-1437;4828;-2601
1202341;1;11;1;2258;-190;3303;-718;-1942;5834;-1582
1202351;1;11;1;2258;-4;2631;-580;-2348;6679;-919
1202361;1;11;1;2258;249;2298;-604;-2424;6993;-955
1202371;1;11;1;2258;236;1844;-877;-2517;7270;-1251
1202381;1;11;1;2258;-796;1014;-1154;-1786;6705;-2213
1202391;1;11;1;2258;-1712;1215;-910;-1318;5659;-3140
1202401;1;11;1;2258;-2940;1289;-792;-1578;5006;-3830
1202411;1;11;1;2258;-4340;1216;-724;-1794;4088;-4476
1202421;1;11;1;2258;-5084;1514;-706;-1351;2531;-5192
1202431;1;11;1;2258;-5211;2313;-931;-591;824;-5761
1202441;1;11;1;2258;-4321;3679;-1373;359;-526;-5957
1202451;1;11;1;2258;-3277;5443;-2263;1133;-1120;-5273
1202461;1;11;1;2258;-3050;6349;-3088;1654;-1238;-4712
1202471;1;11;1;2258;-3825;5375;-3812;2471;-983;-5670
1202481;1;11;1;2258;-4352;4498;-3984;3454;-642;-7339
1202491;1;11;1;2258;-4518;4187;-3604;3864;-75;-8326
1202501;1;11;1;2258;-4483;4849;-2922;3024;483;-7336
1202511;1;11;1;2258;-4140;5044;-2441;968;1205;-4507
1202521;1;11;1;2258;-3800;4634;-1873;-450;1561;-1817
1202531;1;11;1;2258;-3254;4311;-1072;-839;1620;-453
1202541;1;11;1;2258;-2779;4018;-623;-348;1290;-626
1202551;1;11;1;2258;-2451;3456;-699;378;162;-1532
1202561;1;11;1;2258;-2116;2731;-929;1094;-1101;-2623
1202571;1;11;1;2258;-1971;2260;-1308;1501;-1811;-3291
1202581;1;11;1;2258;-1929;2082;-1460;1778;-1904;-3566
1202591;1;11;1;2259;-1591;2368;-1472;1939;-1784;-3381
1202601;1;11;1;2259;-1306;2775;-1570;2003;-1423;-2978
1202611;1;11;1;2259;-1383;3060;-1669;2104;-1163;-2566
1202621;1;11;1;2259;-1635;3356;-1712;2280;-1266;-2265
1202631;1;11;1;2259;-1901;3420;-1646;2250;-1537;-2086
1202641;1;11;1;2259;-2102;3250;-1652;2061;-1912;-2069
1202651;1;11;1;2259;-2228;2868;-1652;1649;-2308;-2044
1202661;1;11;1;2259;-2197;2421;-1577;1249;-2571;-1991
1202671;1;11;1;2259;-2090;2108;-1459;1048;-2664;-2058
1202681;1;11;1;2259;-1967;1960;-1271;975;-2839;-2134
1202691;1;11;1;2259;-1871;1981;-1212;1028;-2935;-2235
1202701;1;11;1;2259;-1903;2055;-1206;1163;-2810;-2403
1202711;1;11;1;2259;-2080;2264;-1430;1415;-2620;-2632
1202721;1;11;1;2259;-2373;2606;-1597;1570;-2371;-2762
1202731;1;11;1;2259;-2699;2900;-1747;1531;-2107;-2754
1202741;1;11;1;2259;-2904;3056;-1778;1317;-1954;-2599
1202751;1;11;1;2259;-2939;3084;-1696;955;-1940;-2236
1202761;1;11;1;2259;-2835;2820;-1535;551;-1876;-1761
1202771;1;11;1;2259;-2602;2505;-1372;265;-1758;-1315
1202781;1;11;1;2259;-2407;2179;-1255;224;-1668;-1110
1202791;1;11;1;2259;-2424;2019;-1226;480;-1868;-1306
1202801;1;11;1;2259;-2540;2128;-1150;814;-2232;-1747
1202811;1;11;1;2259;-2748;2355;-1184;973;-2615;-2104
1202821;1;11;1;2259;-3021;2560;-1253;917;-2993;-2298
1202831;1;11;1;2259;-3182;2734;-1291;717;-3271;-2264
1202841;1;11;1;2259;-3222;2843;-1351;535;-3443;-2078
1202851;1;11;1;2259;-3108;2914;-1329;377;-3366;-1820
1202861;1;11;1;2259;-2708;2715;-1385;199;-3066;-1450
1202871;1;11;1;2259;-2473;2317;-1478;256;-2811;-1343
1202881;1;11;1;2259;-2468;2114;-1458;459;-2711;-1568
1202891;1;11;1;2259;-2517;2135;-1395;661;-2698;-1964
1202901;1;11;1;2259;-2740;2312;-1411;702;-2695;-2180
1202911;1;11;1;2259;-3052;2496;-1377;536;-2782;-2119
1202921;1;11;1;2259;-3077;2777;-1254;176;-2894;-1864
1202931;1;11;1;2259;-2833;2867;-1222;-278;-2739;-1542
1202941;1;11;1;2259;-2511;2589;-1210;-598;-2433;-1269
1202951;1;11;1;2259;-2310;2356;-1215;-510;-2347;-1338
1202961;1;11;1;2259;-2234;2230;-1196;-222;-2291;-1690
1202971;1;11;1;2259;-2425;2220;-1233;97;-2316;-2142
1202981;1;11;1;2259;-2733;2350;-1269;270;-2439;-2403
1202991;1;11;1;2259;-3020;2484;-1309;188;-2538;-2309
1203001;1;11;1;2259;-3161;2575;-1289;86;-2723;-2004
1203011;1;11;1;2259;-3176;2575;-1137;-11;-2836;-1512
1203021;1;11;1;2259;-3088;2487;-1104;7;-2730;-999
1203031;1;11;1;2259;-2847;2455;-1061;225;-2521;-769
1203041;1;11;1;2259;-2765;2375;-994;383;-2269;-740
1203051;1;11;1;2259;-2775;2381;-1027;496;-2312;-1009
1203061;1;11;1;2259;-2820;2484;-1044;450;-2606;-1367
1203071;1;11;1;2259;-2912;2564;-1130;320;-3039;-1599
1203081;1;11;1;2259;-3023;2648;-1110;164;-3461;-1613
1203091;1;11;1;2260;-3048;2659;-1062;68;-3673;-1378
1203101;1;11;1;2260;-2932;2592;-990;69;-3574;-1053
1203111;1;11;1;2260;-2781;2541;-1008;64;-3156;-802
1203121;1;11;1;2260;-2677;2498;-1148;199;-2748;-835
1203131;1;11;1;2260;-2756;2448;-1308;269;-2468;-1055
1203141;1;11;1;2260;-2881;2569;-1373;243;-2399;-1400
1203151;1;11;1;2260;-3094;2624;-1223;-8;-2362;-1553
1203161;1;11;1;2260;-3371;2759;-1233;-151;-2329;-1528
1203171;1;11;1;2260;-3437;2748;-1112;-141;-2133;-1223
1203181;1;11;1;2260;-3285;2663;-956;11;-1759;-774
1203191;1;11;1;2260;-3089;2554;-808;309;-1344;-446
1203201;1;11;1;2260;-2878;2468;-668;483;-821;-339
1203211;1;11;1;2260;-2875;2383;-671;678;-631;-600
1203221;1;11;1;2260;-3014;2372;-694;791;-885;-1040
1203231;1;11;1;2260;-3168;2470;-739;704;-1246;-1327
1203241;1;11;1;2260;-3356;2619;-789;442;-1568;-1299
1203251;1;11;1;2260;-3471;2702;-765;186;-1773;-1062
1203261;1;11;1;2260;-3483;2689;-752;58;-1759;-730
1203271;1;11;1;2260;-3331;2650;-632;122;-1565;-501
1203281;1;11;1;2260;-3153;2545;-669;199;-1318;-372
1203291;1;11;1;2260;-3013;2423;-800;249;-1095;-378
1203301;1;11;1;2260;-2936;2359;-882;267;-1141;-548
1203311;1;11;1;2260;-2983;2298;-898;217;-1299;-760
1203321;1;11;1;2260;-3019;2366;-821;123;-1396;-886
1203331;1;11;1;2260;-3091;2410;-741;-53;-1292;-824
1203341;1;11;1;2260;-3123;2486;-725;-224;-1083;-618
1203351;1;11;1;2260;-3121;2496;-703;-281;-874;-399
1203361;1;11;1;2260;-3094;2445;-707;-167;-696;-274
1203371;1;11;1;2260;-3045;2375;-667;-6;-608;-232
1203381;1;11;1;2260;-2946;2331;-707;81;-519;-192
1203391;1;11;1;2260;-2971;2238;-793;99;-558;-207
1203401;1;11;1;2260;-3038;2245;-774;85;-731;-298
1203411;1;11;1;2260;-3106;2313;-758;38;-848;-387
1203421;1;11;1;2260;-3180;2339;-686;15;-831;-417
1203431;1;11;1;2260;-3280;2345;-623;-16;-649;-379
1203441;1;11;1;2260;-3257;2344;-564;-64;-417;-281
1203451;1;11;1;2260;-3247;2293;-561;-88;-232;-186
1203461;1;11;1;2260;-3156;2320;-571;-99;-205;-138
1203471;1;11;1;2260;-3122;2320;-617;-95;-366;-163
1203481;1;11;1;2260;-3190;2391;-665;-61;-617;-249
1203491;1;11;1;2260;-3237;2442;-627;-35;-867;-328
1203501;1;11;1;2260;-3312;2413;-596;-43;-991;-351
1203511;1;11;1;2260;-3424;2411;-611;-56;-1009;-349
1203521;1;11;1;2260;-3365;2340;-545;-97;-936;-290
1203531;1;11;1;2260;-3343;2302;-554;-202;-768;-142
1203541;1;11;1;2260;-3279;2269;-643;-206;-548;-129
1203551;1;11;1;2260;-3184;2258;-629;-190;-403;-175
1203561;1;11;1;2260;-3118;2271;-659;-172;-309;-294
1203571;1;11;1;2260;-3082;2327;-643;-158;-245;-389
1203581;1;11;1;2260;-3112;2361;-563;-137;-224;-404
1203591;1;11;1;2261;-3156;2371;-540;-153;-190;-302
1203601;1;11;1;2261;-3167;2343;-528;-152;-180;-161
1203611;1;11;1;2261;-3136;2299;-528;-144;-194;-25
1203621;1;11;1;2261;-3124;2239;-542;-127;-217;25
1203631;1;11;1;2261;-3083;2217;-550;-111;-240;-10
1203641;1;11;1;2261;-3095;2249;-557;-89;-248;-62
1203651;1;11;1;2261;-3095;2267;-578;-89;-223;-70
1203661;1;11;1;2261;-3098;2257;-582;-79;-177;-60
1203671;1;11;1;2261;-3059;2244;-578;-83;-95;-45
1203681;1;11;1;2261;-3054;2184;-589;-65;-36;-52
1203691;1;11;1;2261;-3056;2175;-606;-44;-6;-117
1203701;1;11;1;2261;-3113;2198;-602;-52;22;-196
1203711;1;11;1;2261;-3168;2244;-564;-80;21;-269
1203721;1;11;1;2261;-3232;2286;-536;-114;-84;-331
1203731;1;11;1;2261;-3291;2334;-522;-160;-220;-369
1203741;1;11;1;2261;-3347;2357;-523;-209;-336;-352
1203751;1;11;1;2261;-3330;2364;-571;-257;-405;-315
1203761;1;11;1;2261;-3303;2329;-535;-269;-427;-269
1203771;1;11;1;2261;-3196;2277;-477;-301;-370;-235
1203781;1;11;1;2261;-3178;2273;-524;-261;-318;-279
1203791;1;11;1;2261;-3248;2310;-562;-239;-202;-283
1203801;1;11;1;2261;-3252;2357;-551;-233;-115;-339
1203811;1;11;1;2261;-3246;2395;-543;-261;-90;-322
1203821;1;11;1;2261;-3253;2418;-572;-289;-108;-270
1203831;1;11;1;2261;-3247;2444;-592;-303;-145;-220
1203841;1;11;1;2261;-3234;2422;-633;-296;-162;-178
1203851;1;11;1;2261;-3233;2402;-646;-287;-66;-115
1203861;1;11;1;2261;-3208;2348;-610;-268;81;-64
1203871;1;11;1;2261;-3185;2304;-626;-250;241;-50
1203881;1;11;1;2261;-3168;2238;-597;-271;370;-81
1203891;1;11;1;2261;-3151;2216;-596;-293;380;-142
1203901;1;11;1;2261;-3163;2232;-593;-344;332;-195
1203911;1;11;1;2261;-3222;2285;-622;-393;265;-195
1203921;1;11;1;2261;-3278;2331;-575;-401;236;-118
1203931;1;11;1;2261;-3275;2363;-528;-391;284;18
1203941;1;11;1;2261;-3242;2306;-491;-344;343;113
1203951;1;11;1;2261;-3160;2243;-495;-263;319;121
1203961;1;11;1;2261;-3113;2169;-506;-227;275;53
1203971;1;11;1;2261;-3099;2135;-530;-215;170;-59
1203981;1;11;1;2261;-3155;2167;-580;-251;24;-152
1203991;1;11;1;2261;-3204;2247;-614;-322;-79;-207
1204001;1;11;1;2261;-3272;2304;-611;-368;-138;-209
1204011;1;11;1;2261;-3295;2356;-604;-374;-140;-153
1204021;1;11;1;2261;-3290;2345;-582;-341;-66;-67
1204031;1;11;1;2261;-3257;2307;-590;-296;33;-11
1204041;1;11;1;2261;-3223;2292;-590;-280;69;0
1204051;1;11;1;2261;-3213;2253;-606;-278;24;-22
1204061;1;11;1;2261;-3233;2223;-639;-269;-77;-129
1204071;1;11;1;2261;-3279;2224;-614;-284;-143;-244
1204081;1;11;1;2261;-3307;2232;-571;-290;-156;-281
