timestamp;subject_id;activity;label;seq;ax;ay;az;gx;gy;gz
1587915;1;12;1;3002;-2388;2185;-2228;-257;-288;123
1587925;1;12;1;3002;-2316;2130;-2311;-262;-232;187
1587935;1;12;1;3002;-2327;2081;-2381;-251;-171;158
1587945;1;12;1;3002;-2338;2059;-2485;-226;-82;62
1587955;1;12;1;3002;-2415;2093;-2519;-183;10;-71
1587965;1;12;1;3002;-2484;2128;-2484;-150;67;-178
1587975;1;12;1;3002;-2543;2144;-2394;-130;80;-213
1587985;1;12;1;3002;-2569;2163;-2295;-125;30;-190
1587995;1;12;1;3002;-2557;2166;-2245;-129;-36;-125
1588005;1;12;1;3002;-2518;2164;-2249;-146;-93;-17
1588015;1;12;1;3002;-2448;2145;-2277;-154;-114;82
1588025;1;12;1;3002;-2376;2114;-2311;-145;-85;132
1588035;1;12;1;3002;-2337;2058;-2333;-124;-41;104
1588045;1;12;1;3002;-2346;2070;-2325;-95;-18;16
1588055;1;12;1;3002;-2437;2121;-2347;-84;-41;-91
1588065;1;12;1;3002;-2514;2194;-2349;-84;-121;-185
1588075;1;12;1;3002;-2529;2316;-2332;-131;-202;-163
1588085;1;12;1;3002;-2508;2361;-2368;-221;-245;-28
1588095;1;12;1;3002;-2495;2331;-2400;-277;-228;114
1588105;1;12;1;3002;-2436;2269;-2396;-308;-118;215
1588115;1;12;1;3002;-2389;2246;-2386;-298;35;277
1588125;1;12;1;3002;-2360;2220;-2340;-291;171;287
1588135;1;12;1;3002;-2379;2196;-2328;-271;249;266
1588145;1;12;1;3002;-2367;2206;-2351;-279;256;197
1588155;1;12;1;3002;-2339;2229;-2335;-345;232;142
1588165;1;12;1;3002;-2323;2212;-2365;-423;200;85
1588175;1;12;1;3002;-2358;2216;-2366;-492;162;13
1588185;1;12;1;3002;-2413;2242;-2359;-530;144;-45
1588195;1;12;1;3002;-2463;2270;-2325;-550;136;-65
1588205;1;12;1;3002;-2485;2271;-2242;-552;134;-29
1588215;1;12;1;3002;-2498;2273;-2218;-555;110;21
1588225;1;12;1;3002;-2476;2252;-2212;-544;77;73
1588235;1;12;1;3002;-2446;2261;-2205;-530;15;119
1588245;1;12;1;3002;-2458;2267;-2257;-509;-48;130
1588255;1;12;1;3002;-2434;2302;-2304;-481;-91;119
1588265;1;12;1;3002;-2434;2300;-2340;-440;-111;103
1588275;1;12;1;3002;-2467;2278;-2357;-419;-90;112
1588285;1;12;1;3002;-2459;2266;-2320;-404;-57;136
1588295;1;12;1;3002;-2455;2219;-2268;-375;-7;154
1588305;1;12;1;3002;-2411;2185;-2217;-329;16;163
1588315;1;12;1;3002;-2342;2176;-2220;-342;29;158
1588325;1;12;1;3002;-2317;2161;-2253;-364;12;103
1588335;1;12;1;3002;-2334;2159;-2280;-407;-24;32
1588345;1;12;1;3002;-2395;2204;-2295;-462;-73;-41
1588355;1;12;1;3002;-2426;2261;-2289;-512;-116;-78
1588365;1;12;1;3002;-2455;2296;-2307;-562;-130;-82
1588375;1;12;1;3002;-2452;2313;-2277;-573;-106;-63
1588385;1;12;1;3002;-2403;2304;-2283;-576;-40;-17
1588395;1;12;1;3002;-2382;2302;-2290;-547;46;29
1588405;1;12;1;3002;-2356;2283;-2262;-491;134;56
1588415;1;12;1;3003;-2328;2287;-2250;-463;204;103
1588425;1;12;1;3003;-2320;2277;-2270;-457;240;94
1588435;1;12;1;3003;-2390;2252;-2270;-445;237;28
1588445;1;12;1;3003;-2432;2273;-2304;-438;226;-67
1588455;1;12;1;3003;-2445;2309;-2296;-460;205;-130
1588465;1;12;1;3003;-2463;2307;-2273;-499;178;-137
1588475;1;12;1;3003;-2443;2325;-2187;-514;172;-111
1588485;1;12;1;3003;-2404;2299;-2200;-519;170;-71
1588495;1;12;1;3003;-2371;2296;-2188;-523;179;-38
1588505;1;12;1;3003;-2341;2316;-2251;-555;204;1
1588515;1;12;1;3003;-2359;2337;-2314;-592;189;14
1588525;1;12;1;3003;-2388;2337;-2340;-623;188;21
1588535;1;12;1;3003;-2410;2302;-2354;-641;204;-3
1588545;1;12;1;3003;-2427;2247;-2306;-621;227;-60
1588555;1;12;1;3003;-2424;2219;-2242;-579;241;-120
1588565;1;12;1;3003;-2433;2236;-2184;-548;236;-168
1588575;1;12;1;3003;-2416;2278;-2153;-540;204;-188
1588585;1;12;1;3003;-2395;2352;-2142;-562;158;-168
1588595;1;12;1;3003;-2344;2375;-2165;-572;157;-104
1588605;1;12;1;3003;-2309;2364;-2223;-569;185;-28
1588615;1;12;1;3003;-2289;2327;-2288;-568;226;17
1588625;1;12;1;3003;-2336;2286;-2308;-561;283;-3
1588635;1;12;1;3003;-2362;2276;-2315;-558;334;-50
1588645;1;12;1;3003;-2347;2269;-2319;-552;373;-123
1588655;1;12;1;3003;-2365;2291;-2344;-554;389;-208
1588665;1;12;1;3003;-2343;2323;-2343;-580;423;-271
1588675;1;12;1;3003;-2319;2310;-2344;-593;447;-288
1588685;1;12;1;3003;-2360;2266;-2318;-598;468;-294
1588695;1;12;1;3003;-2375;2235;-2258;-601;465;-285
1588705;1;12;1;3003;-2373;2223;-2183;-574;437;-284
1588715;1;12;1;3003;-2382;2225;-2122;-515;405;-283
1588725;1;12;1;3003;-2373;2234;-2061;-446;372;-277
1588735;1;12;1;3003;-2390;2269;-2024;-375;312;-279
1588745;1;12;1;3003;-2385;2341;-2046;-321;222;-284
1588755;1;12;1;3003;-2321;2404;-2146;-279;123;-231
1588765;1;12;1;3003;-2333;2434;-2308;-286;93;-124
1588775;1;12;1;3003;-2322;2427;-2374;-318;127;-16
1588785;1;12;1;3003;-2319;2389;-2413;-344;208;48
1588795;1;12;1;3003;-2315;2340;-2429;-325;307;28
1588805;1;12;1;3003;-2303;2302;-2374;-289;393;-58
1588815;1;12;1;3003;-2340;2308;-2352;-274;452;-153
1588825;1;12;1;3003;-2380;2353;-2300;-289;462;-181
1588835;1;12;1;3003;-2369;2400;-2272;-342;431;-144
1588845;1;12;1;3003;-2358;2396;-2237;-392;365;-77
1588855;1;12;1;3003;-2327;2427;-2226;-431;300;-2
1588865;1;12;1;3003;-2304;2447;-2257;-457;239;59
1588875;1;12;1;3003;-2260;2420;-2290;-468;182;77
1588885;1;12;1;3003;-2245;2387;-2338;-456;163;56
1588895;1;12;1;3003;-2248;2348;-2356;-418;180;15
1588905;1;12;1;3003;-2286;2344;-2361;-386;220;-11
1588915;1;12;1;3004;-2288;2341;-2311;-338;272;-31
1588925;1;12;1;3004;-2315;2333;-2257;-300;262;-14
1588935;1;12;1;3004;-2351;2367;-2237;-283;215;16
1588945;1;12;1;3004;-2379;2382;-2209;-300;133;55
1588955;1;12;1;3004;-2365;2403;-2177;-315;16;73
1588965;1;12;1;3004;-2316;2428;-2188;-322;-76;120
1588975;1;12;1;3004;-2274;2480;-2196;-336;-105;218
1588985;1;12;1;3004;-2252;2502;-2219;-360;-99;340
1588995;1;12;1;3004;-2234;2424;-2267;-364;-51;436
1589005;1;12;1;3004;-2230;2401;-2264;-310;-16;450
1589015;1;12;1;3004;-2269;2373;-2259;-218;-15;414
1589025;1;12;1;3004;-2292;2392;-2220;-136;-64;333
1589035;1;12;1;3004;-2292;2387;-2176;-78;-140;264
1589045;1;12;1;3004;-2320;2398;-2207;-43;-226;217
1589055;1;12;1;3004;-2297;2446;-2237;-60;-276;211
1589065;1;12;1;3004;-2277;2489;-2283;-121;-306;256
1589075;1;12;1;3004;-2226;2506;-2306;-155;-312;311
1589085;1;12;1;3004;-2178;2496;-2343;-177;-279;350
1589095;1;12;1;3004;-2130;2481;-2359;-212;-227;363
1589105;1;12;1;3004;-2123;2389;-2361;-215;-173;308
1589115;1;12;1;3004;-2081;2340;-2374;-205;-136;183
1589125;1;12;1;3004;-2098;2350;-2366;-207;-109;30
1589135;1;12;1;3004;-2143;2390;-2349;-256;-92;-89
1589145;1;12;1;3004;-2175;2430;-2321;-314;-85;-153
1589155;1;12;1;3004;-2233;2470;-2310;-347;-78;-156
1589165;1;12;1;3004;-2290;2501;-2306;-367;-58;-82
1589175;1;12;1;3004;-2332;2508;-2290;-365;-56;-4
1589185;1;12;1;3004;-2289;2504;-2276;-341;-71;74
1589195;1;12;1;3004;-2247;2458;-2278;-313;-76;147
1589205;1;12;1;3004;-2226;2398;-2335;-304;-62;195
1589215;1;12;1;3004;-2180;2369;-2350;-327;-25;192
1589225;1;12;1;3004;-2174;2351;-2353;-353;-3;154
1589235;1;12;1;3004;-2162;2352;-2324;-366;0;93
1589245;1;12;1;3004;-2161;2359;-2311;-365;-21;31
1589255;1;12;1;3004;-2201;2375;-2334;-358;-63;-30
1589265;1;12;1;3004;-2232;2385;-2318;-341;-94;-56
1589275;1;12;1;3004;-2249;2373;-2314;-290;-118;-76
1589285;1;12;1;3004;-2254;2404;-2285;-235;-137;-81
1589295;1;12;1;3004;-2282;2401;-2252;-197;-154;-65
1589305;1;12;1;3004;-2280;2410;-2261;-170;-175;-51
1589315;1;12;1;3004;-2285;2401;-2247;-162;-227;-25
1589325;1;12;1;3004;-2270;2388;-2256;-161;-265;22
1589335;1;12;1;3004;-2261;2349;-2294;-152;-278;65
1589345;1;12;1;3004;-2251;2351;-2309;-132;-270;56
1589355;1;12;1;3004;-2222;2362;-2290;-118;-236;27
1589365;1;12;1;3004;-2165;2388;-2305;-105;-197;-8
1589375;1;12;1;3004;-2168;2387;-2286;-97;-169;-48
1589385;1;12;1;3004;-2198;2415;-2279;-91;-147;-73
1589395;1;12;1;3004;-2232;2444;-2267;-98;-146;-74
1589405;1;12;1;3004;-2280;2450;-2262;-103;-178;-53
1589415;1;12;1;3005;-2310;2447;-2273;-85;-234;-56
1589425;1;12;1;3005;-2326;2462;-2283;-70;-279;-41
1589435;1;12;1;3005;-2333;2451;-2262;-57;-309;-8
1589445;1;12;1;3005;-2300;2436;-2268;-62;-319;22
1589455;1;12;1;3005;-2291;2412;-2255;-62;-329;51
1589465;1;12;1;3005;-2260;2406;-2270;-53;-327;64
1589475;1;12;1;3005;-2230;2411;-2267;-74;-304;76
1589485;1;12;1;3005;-2206;2396;-2259;-90;-297;89
1589495;1;12;1;3005;-2177;2380;-2263;-85;-308;60
1589505;1;12;1;3005;-2171;2385;-2272;-79;-331;-24
1589515;1;12;1;3005;-2183;2412;-2284;-76;-355;-96
1589525;1;12;1;3005;-2225;2446;-2313;-90;-368;-162
1589535;1;12;1;3005;-2288;2469;-2314;-88;-363;-215
1589545;1;12;1;3005;-2318;2493;-2279;-93;-320;-199
1589555;1;12;1;3005;-2326;2500;-2232;-96;-275;-110
1589565;1;12;1;3005;-2318;2473;-2179;-90;-238;5
1589575;1;12;1;3005;-2274;2442;-2172;-76;-219;84
1589585;1;12;1;3005;-2211;2404;-2194;-51;-228;105
1589595;1;12;1;3005;-2199;2406;-2235;-35;-236;77
1589605;1;12;1;3005;-2207;2432;-2275;-38;-259;45
1589615;1;12;1;3005;-2244;2468;-2277;-64;-292;1
1589625;1;12;1;3005;-2295;2480;-2264;-82;-328;-36
1589635;1;12;1;3005;-2323;2490;-2241;-80;-371;-45
1589645;1;12;1;3005;-2336;2485;-2240;-96;-383;-8
1589655;1;12;1;3005;-2304;2455;-2208;-95;-388;48
1589665;1;12;1;3005;-2253;2401;-2219;-95;-376;91
1589675;1;12;1;3005;-2213;2370;-2218;-91;-348;82
1589685;1;12;1;3005;-2189;2370;-2234;-90;-332;33
1589695;1;12;1;3005;-2202;2399;-2263;-98;-327;-54
1589705;1;12;1;3005;-2264;2425;-2265;-118;-338;-127
1589715;1;12;1;3005;-2309;2469;-2246;-149;-357;-168
1589725;1;12;1;3005;-2331;2506;-2217;-161;-371;-160
1589735;1;12;1;3005;-2323;2507;-2209;-171;-360;-104
1589745;1;12;1;3005;-2310;2478;-2205;-144;-336;-49
1589755;1;12;1;3005;-2279;2454;-2201;-128;-297;11
1589765;1;12;1;3005;-2273;2425;-2222;-95;-267;33
1589775;1;12;1;3005;-2271;2392;-2198;-86;-247;28
1589785;1;12;1;3005;-2302;2390;-2204;-76;-245;7
1589795;1;12;1;3005;-2312;2405;-2183;-71;-262;-23
1589805;1;12;1;3005;-2345;2433;-2196;-55;-307;-45
1589815;1;12;1;3005;-2357;2439;-2188;-44;-342;-50
1589825;1;12;1;3005;-2342;2471;-2182;-28;-385;-30
1589835;1;12;1;3005;-2303;2443;-2188;-20;-398;-7
1589845;1;12;1;3005;-2284;2428;-2185;-26;-385;8
1589855;1;12;1;3005;-2250;2435;-2186;-26;-361;4
1589865;1;12;1;3005;-2240;2435;-2192;-34;-324;-15
1589875;1;12;1;3005;-2270;2446;-2219;-36;-308;-53
1589885;1;12;1;3005;-2285;2462;-2261;-61;-302;-106
1589895;1;12;1;3005;-2306;2470;-2290;-83;-295;-167
1589905;1;12;1;3005;-2310;2454;-2283;-115;-269;-216
1589915;1;12;1;3006;-2313;2482;-2243;-117;-207;-228
1589925;1;12;1;3006;-2343;2509;-2227;-130;-126;-184
1589935;1;12;1;3006;-2361;2521;-2199;-133;-78;-98
1589945;1;12;1;3006;-2352;2523;-2171;-161;-35;-14
1589955;1;12;1;3006;-2317;2491;-2186;-192;5;90
1589965;1;12;1;3006;-2256;2464;-2180;-212;51;140
1589975;1;12;1;3006;-2184;2422;-2230;-228;91;120
1589985;1;12;1;3006;-2191;2392;-2238;-214;106;18
1589995;1;12;1;3006;-2210;2421;-2267;-192;127;-129
1590005;1;12;1;3006;-2267;2446;-2219;-186;139;-242
1590015;1;12;1;3006;-2341;2493;-2175;-196;129;-263
1590025;1;12;1;3006;-2400;2531;-2117;-233;112;-188
1590035;1;12;1;3006;-2403;2512;-2084;-259;69;-84
1590045;1;12;1;3006;-2363;2494;-2079;-248;31;15
1590055;1;12;1;3006;-2302;2423;-2133;-225;5;78
1590065;1;12;1;3006;-2270;2409;-2169;-195;-14;87
1590075;1;12;1;3006;-2259;2408;-2204;-156;-21;59
1590085;1;12;1;3006;-2234;2417;-2199;-157;-20;11
1590095;1;12;1;3006;-2269;2442;-2234;-152;-22;-17
1590105;1;12;1;3006;-2282;2456;-2239;-167;-29;-41
1590115;1;12;1;3006;-2275;2437;-2251;-153;-42;-64
1590125;1;12;1;3006;-2278;2442;-2246;-168;-38;-71
1590135;1;12;1;3006;-2273;2434;-2243;-166;-25;-75
1590145;1;12;1;3006;-2286;2458;-2229;-181;-8;-77
1590155;1;12;1;3006;-2300;2489;-2205;-199;1;-54
1590165;1;12;1;3006;-2301;2497;-2208;-214;10;-38
1590175;1;12;1;3006;-2296;2498;-2213;-220;16;-13
1590185;1;12;1;3006;-2302;2466;-2227;-206;25;15
1590195;1;12;1;3006;-2283;2455;-2255;-203;52;13
1590205;1;12;1;3006;-2269;2457;-2247;-198;70;-25
1590215;1;12;1;3006;-2262;2453;-2244;-198;96;-53
1590225;1;12;1;3006;-2268;2465;-2222;-214;118;-57
1590235;1;12;1;3006;-2281;2472;-2211;-218;113;-44
1590245;1;12;1;3006;-2265;2503;-2162;-214;91;1
1590255;1;12;1;3006;-2241;2496;-2147;-220;47;50
1590265;1;12;1;3006;-2266;2452;-2167;-228;3;72
1590275;1;12;1;3006;-2234;2429;-2195;-217;-31;45
1590285;1;12;1;3006;-2219;2436;-2227;-206;-37;-8
1590295;1;12;1;3006;-2223;2467;-2283;-197;-16;-42
1590305;1;12;1;3006;-2259;2490;-2286;-212;38;-47
1590315;1;12;1;3006;-2301;2491;-2287;-224;68;-62
1590325;1;12;1;3006;-2335;2490;-2260;-211;72;-61
1590335;1;12;1;3006;-2331;2482;-2251;-208;59;-41
1590345;1;12;1;3006;-2311;2481;-2186;-197;40;0
1590355;1;12;1;3006;-2292;2448;-2150;-194;28;56
1590365;1;12;1;3006;-2251;2430;-2160;-205;22;86
1590375;1;12;1;3006;-2211;2418;-2149;-210;19;100
1590385;1;12;1;3006;-2202;2430;-2178;-198;0;101
1590395;1;12;1;3006;-2208;2467;-2243;-205;-12;95
1590405;1;12;1;3006;-2241;2454;-2246;-196;-27;81
1590415;1;12;1;3007;-2249;2455;-2275;-194;-23;66
1590425;1;12;1;3007;-2276;2440;-2252;-186;-20;47
1590435;1;12;1;3007;-2278;2420;-2262;-174;-19;13
1590445;1;12;1;3007;-2279;2431;-2226;-165;-13;-22
1590455;1;12;1;3007;-2288;2481;-2239;-184;-20;-40
1590465;1;12;1;3007;-2256;2485;-2225;-206;-38;-23
1590475;1;12;1;3007;-2231;2493;-2221;-202;-68;10
1590485;1;12;1;3007;-2231;2473;-2231;-186;-85;43
1590495;1;12;1;3007;-2226;2441;-2219;-176;-91;65
1590505;1;12;1;3007;-2235;2442;-2202;-160;-93;60
1590515;1;12;1;3007;-2212;2429;-2210;-146;-109;29
1590525;1;12;1;3007;-2215;2432;-2233;-148;-101;4
1590535;1;12;1;3007;-2234;2435;-2243;-152;-99;-24
1590545;1;12;1;3007;-2265;2497;-2238;-173;-95;-48
1590555;1;12;1;3007;-2264;2507;-2228;-184;-88;-41
1590565;1;12;1;3007;-2273;2518;-2221;-169;-100;-20
1590575;1;12;1;3007;-2261;2502;-2212;-163;-111;-17
1590585;1;12;1;3007;-2232;2469;-2203;-137;-139;-17
1590595;1;12;1;3007;-2223;2436;-2198;-130;-151;-24
1590605;1;12;1;3007;-2202;2438;-2201;-127;-164;-44
1590615;1;12;1;3007;-2195;2459;-2210;-158;-154;-56
1590625;1;12;1;3007;-2200;2475;-2266;-168;-140;-71
1590635;1;12;1;3007;-2224;2487;-2278;-170;-117;-71
1590645;1;12;1;3007;-2260;2490;-2270;-164;-91;-74
1590655;1;12;1;3007;-2261;2480;-2235;-123;-78;-68
1590665;1;12;1;3007;-2263;2460;-2218;-104;-86;-72
1590675;1;12;1;3007;-2257;2447;-2204;-89;-111;-99
1590685;1;12;1;3007;-2232;2452;-2231;-95;-138;-116
1590695;1;12;1;3007;-2225;2472;-2230;-139;-142;-111
1590705;1;12;1;3007;-2223;2470;-2224;-153;-135;-92
1590715;1;12;1;3007;-2233;2462;-2219;-144;-136;-79
1590725;1;12;1;3007;-2232;2455;-2241;-139;-155;-97
1590735;1;12;1;3007;-2212;2454;-2218;-137;-170;-125
1590745;1;12;1;3007;-2195;2421;-2227;-133;-168;-150
1590755;1;12;1;3007;-2196;2434;-2240;-141;-149;-203
1590765;1;12;1;3007;-2195;2473;-2224;-142;-116;-251
1590775;1;12;1;3007;-2228;2532;-2244;-156;-97;-275
1590785;1;12;1;3007;-2238;2538;-2246;-144;-94;-253
1590795;1;12;1;3007;-2305;2507;-2251;-108;-95;-200
1590805;1;12;1;3007;-2349;2497;-2212;-69;-110;-146
1590815;1;12;1;3007;-2373;2449;-2185;-26;-145;-91
1590825;1;12;1;3007;-2359;2429;-2154;-30;-178;-24
1590835;1;12;1;3007;-2295;2422;-2166;-59;-211;61
1590845;1;12;1;3007;-2272;2390;-2198;-75;-245;130
1590855;1;12;1;3007;-2228;2371;-2208;-60;-273;167
1590865;1;12;1;3007;-2231;2368;-2213;-21;-307;149
1590875;1;12;1;3007;-2280;2368;-2201;35;-366;89
1590885;1;12;1;3007;-2328;2388;-2192;112;-463;13
1590895;1;12;1;3007;-2368;2426;-2198;154;-550;-7
1590905;1;12;1;3007;-2402;2434;-2184;165;-606;80
1602658;1;12;1;3008;-96;6700;-627;-455;4140;1562
1602668;1;12;1;3008;-270;5923;-35;-1002;3413;2739
1602678;1;12;1;3008;172;5156;117;-1563;2803;2652
1602688;1;12;1;3008;828;4701;32;-1646;1935;2189
1602698;1;12;1;3008;1116;3910;-99;-1432;963;1621
1602708;1;12;1;3008;813;2974;-495;-789;209;809
1602718;1;12;1;3008;648;2138;-687;451;-131;-239
1602728;1;12;1;3008;593;2000;-842;1630;-222;-1266
1602738;1;12;1;3008;643;2481;-1070;2489;70;-1993
1602748;1;12;1;3008;706;3633;-1277;2634;488;-2401
1602758;1;12;1;3008;766;4321;-1462;2453;391;-2280
1602768;1;12;1;3008;469;4420;-1686;2166;245;-2225
1602778;1;12;1;3008;518;4784;-1398;1915;256;-2113
1602788;1;12;1;3008;483;5083;-835;1676;41;-1735
1602798;1;12;1;3008;271;4908;-64;1495;-506;-1392
1602808;1;12;1;3008;-380;4315;273;1869;-1172;-1632
1602818;1;12;1;3008;-642;4222;-51;2314;-1874;-2181
1602828;1;12;1;3008;-602;4324;-249;2415;-2831;-2615
1602838;1;12;1;3008;-835;4313;-706;2157;-3665;-2832
1602848;1;12;1;3008;-916;4604;-1260;1945;-4091;-2716
1602858;1;12;1;3008;-635;4975;-1285;1907;-4347;-2120
1602868;1;12;1;3008;-184;5457;-1144;1722;-4368;-1251
1602878;1;12;1;3008;243;5672;-872;1288;-4516;7
1602888;1;12;1;3008;709;5292;-671;719;-4887;1059
1602898;1;12;1;3008;1034;4563;-840;489;-5681;1231
1602908;1;12;1;3008;1455;4147;-985;502;-6345;489
1602918;1;12;1;3008;1724;4168;-1485;856;-6243;-734
1602928;1;12;1;3008;1622;4172;-1762;1036;-6145;-991
1602938;1;12;1;3008;1424;4159;-2297;1140;-5609;-1314
1602948;1;12;1;3008;1613;3922;-2378;869;-4729;-1224
1602958;1;12;1;3008;1980;3778;-2142;673;-3700;-914
1602968;1;12;1;3008;1914;3620;-1783;390;-3266;-777
1602978;1;12;1;3008;1479;3501;-1294;346;-3329;-1187
1602988;1;12;1;3008;909;3518;-963;465;-4119;-1806
1602998;1;12;1;3008;664;3491;-764;670;-4747;-2267
1603008;1;12;1;3008;679;3250;-1034;830;-4748;-2428
1603018;1;12;1;3008;635;2914;-1560;827;-4203;-2391
1603028;1;12;1;3008;891;2723;-2004;694;-3364;-2390
1603038;1;12;1;3008;1622;2665;-2167;346;-2370;-2044
1603048;1;12;1;3008;1826;2384;-2322;357;-1701;-2013
1603058;1;12;1;3008;1542;2424;-2173;735;-1391;-2566
1603068;1;12;1;3008;1039;2748;-1631;1108;-1536;-3427
1603078;1;12;1;3008;461;3027;-1008;1498;-2051;-4296
1603088;1;12;1;3008;-66;3295;-615;1892;-2424;-4917
1603098;1;12;1;3008;-236;3535;-637;2000;-2731;-4984
1603108;1;12;1;3008;-40;3783;-831;1883;-3062;-4567
1603118;1;12;1;3008;86;3806;-1111;1676;-3256;-4031
1603128;1;12;1;3008;9;3881;-1366;1581;-3535;-3658
1603138;1;12;1;3008;-17;4011;-1467;1446;-3702;-3235
1603148;1;12;1;3008;11;4297;-1491;1241;-3811;-2715
1603158;1;12;1;3009;185;4525;-1562;940;-3927;-2118
1603168;1;12;1;3009;371;4594;-1665;660;-3929;-1639
1603178;1;12;1;3009;338;4524;-1891;453;-3767;-1361
1603188;1;12;1;3009;99;4140;-1968;270;-3543;-1289
1603198;1;12;1;3009;-20;3883;-1569;36;-3309;-1348
1603208;1;12;1;3009;229;3481;-971;-218;-3050;-1383
1603218;1;12;1;3009;603;3013;-627;-196;-2948;-1608
1603228;1;12;1;3009;829;2837;-641;88;-3063;-2098
1603238;1;12;1;3009;824;2894;-968;512;-3278;-2566
1603248;1;12;1;3009;460;2974;-1609;952;-3473;-2831
1603258;1;12;1;3009;-14;3223;-2159;1375;-3271;-3192
1603268;1;12;1;3009;-236;3724;-2389;1260;-2575;-3300
1603278;1;12;1;3009;-383;4125;-2371;925;-2132;-3102
1603288;1;12;1;3009;-371;4354;-2118;429;-1795;-2690
1603298;1;12;1;3009;-163;4430;-1897;79;-1533;-2154
1603308;1;12;1;3009;-1;4383;-1987;-12;-1272;-1533
1603318;1;12;1;3009;24;4242;-2344;94;-860;-1002
1603328;1;12;1;3009;48;4076;-2696;285;-221;-608
1603338;1;12;1;3009;-133;3734;-2823;439;481;-375
1603348;1;12;1;3009;-568;3335;-2570;526;995;-429
1603358;1;12;1;3009;-867;3119;-1855;576;1192;-688
1603368;1;12;1;3009;-816;3011;-999;636;1026;-900
1603378;1;12;1;3009;-666;3025;-468;745;526;-879
1603388;1;12;1;3009;-617;3032;-393;855;-253;-685
1603398;1;12;1;3009;-503;3141;-814;1013;-1014;-582
1603408;1;12;1;3009;-552;3297;-1634;1157;-1643;-687
1603418;1;12;1;3009;-772;3557;-2403;1303;-1951;-1139
1603428;1;12;1;3009;-1059;3761;-2852;1250;-1822;-1575
1603438;1;12;1;3009;-1249;3996;-2918;1014;-1417;-1713
1603448;1;12;1;3009;-1157;3998;-2503;553;-1002;-1300
1603458;1;12;1;3009;-1091;3694;-2075;273;-871;-770
1603468;1;12;1;3009;-1072;3406;-1754;178;-1055;-316
1603478;1;12;1;3009;-1122;3225;-1600;330;-1542;-267
1603488;1;12;1;3009;-1276;3257;-1637;608;-2164;-588
1603498;1;12;1;3009;-1358;3475;-1795;823;-2655;-962
1603508;1;12;1;3009;-1314;3641;-1936;837;-2971;-1098
1603518;1;12;1;3009;-1213;3535;-1947;730;-3026;-849
1603528;1;12;1;3009;-983;3384;-1718;620;-2807;-280
1603538;1;12;1;3009;-643;3209;-1377;626;-2619;250
1603548;1;12;1;3009;-343;3149;-1411;806;-2656;531
1603558;1;12;1;3009;-273;3170;-1728;1138;-2787;327
1603568;1;12;1;3009;-430;3360;-2120;1551;-2946;-206
1603578;1;12;1;3009;-775;3565;-2536;1907;-2975;-820
1603588;1;12;1;3009;-1105;3708;-2779;2048;-2846;-1130
1603598;1;12;1;3009;-1376;3660;-2734;1994;-2633;-1178
1603608;1;12;1;3009;-1379;3548;-2367;1755;-2292;-847
1603618;1;12;1;3009;-1209;3217;-1992;1478;-2013;-285
1603628;1;12;1;3009;-913;2943;-1680;1490;-1919;64
1603638;1;12;1;3009;-706;2923;-1624;1641;-2031;34
1603648;1;12;1;3009;-668;3039;-1823;1893;-2255;-345
1603658;1;12;1;3010;-790;3298;-2176;2110;-2475;-893
1603668;1;12;1;3010;-822;3499;-2424;2130;-2421;-1180
1603678;1;12;1;3010;-897;3556;-2455;2036;-2165;-1224
1603688;1;12;1;3010;-990;3407;-2388;1958;-1810;-1066
1603698;1;12;1;3010;-1202;3099;-2262;1970;-1606;-923
1603708;1;12;1;3010;-1302;3082;-2011;2104;-1657;-1083
1603718;1;12;1;3010;-1278;3291;-1861;2176;-1909;-1328
1603728;1;12;1;3010;-1352;3485;-1964;2199;-2235;-1482
1603738;1;12;1;3010;-1390;3703;-2143;2126;-2449;-1476
1603748;1;12;1;3010;-1382;3804;-2313;1942;-2493;-1201
1603758;1;12;1;3010;-1299;3782;-2348;1726;-2369;-690
1603768;1;12;1;3010;-1129;3515;-2281;1498;-2121;-49
1603778;1;12;1;3010;-1023;3101;-2124;1383;-1854;369
1603788;1;12;1;3010;-927;2766;-1863;1407;-1765;354
1603798;1;12;1;3010;-819;2509;-1775;1578;-1899;-158
1603808;1;12;1;3010;-756;2547;-1817;1758;-2121;-954
1603818;1;12;1;3010;-766;2743;-1884;1901;-2302;-1691
1603828;1;12;1;3010;-932;3062;-2126;2027;-2422;-2293
1603838;1;12;1;3010;-1193;3290;-2385;2073;-2310;-2494
1603848;1;12;1;3010;-1351;3457;-2522;1959;-2071;-2378
1603858;1;12;1;3010;-1441;3510;-2617;1771;-1693;-1975
1603868;1;12;1;3010;-1496;3353;-2573;1598;-1236;-1466
1603878;1;12;1;3010;-1560;3127;-2439;1517;-866;-1052
1603888;1;12;1;3010;-1577;2951;-2248;1498;-686;-892
1603898;1;12;1;3010;-1548;2832;-2104;1551;-681;-939
1603908;1;12;1;3010;-1507;2756;-2039;1637;-784;-1137
1603918;1;12;1;3010;-1550;2758;-2045;1706;-896;-1346
1603928;1;12;1;3010;-1469;2825;-2028;1710;-908;-1475
1603938;1;12;1;3010;-1343;2956;-2032;1639;-856;-1358
1603948;1;12;1;3010;-1229;2941;-2108;1495;-703;-1178
1603958;1;12;1;3010;-1209;2961;-2168;1393;-561;-1046
1603968;1;12;1;3010;-1219;2886;-2261;1351;-499;-1089
1603978;1;12;1;3010;-1343;2863;-2412;1406;-503;-1302
1603988;1;12;1;3010;-1530;2861;-2554;1515;-584;-1644
1603998;1;12;1;3010;-1696;2916;-2657;1550;-654;-1945
1604008;1;12;1;3010;-1772;3057;-2673;1478;-544;-1972
1604018;1;12;1;3010;-1814;3098;-2697;1309;-243;-1697
1604028;1;12;1;3010;-1886;3095;-2664;1155;86;-1381
1604038;1;12;1;3010;-1797;3045;-2488;1022;381;-1095
1604048;1;12;1;3010;-1711;2967;-2390;961;564;-855
1604058;1;12;1;3010;-1677;2788;-2325;948;585;-766
1604068;1;12;1;3010;-1677;2640;-2292;990;486;-878
1604078;1;12;1;3010;-1672;2585;-2190;1042;292;-1152
1604088;1;12;1;3010;-1704;2603;-2141;1097;18;-1400
1604098;1;12;1;3010;-1767;2725;-2168;1119;-277;-1567
1604108;1;12;1;3010;-1913;2680;-2200;1155;-576;-1645
1604118;1;12;1;3010;-2049;2783;-2220;1176;-794;-1631
1604128;1;12;1;3010;-2152;2790;-2296;1146;-1058;-1423
1604138;1;12;1;3010;-1989;2786;-2315;1035;-1189;-1072
1604148;1;12;1;3010;-1805;2738;-2337;859;-1102;-633
1604158;1;12;1;3011;-1713;2749;-2497;696;-1038;-347
1604168;1;12;1;3011;-1543;2763;-2664;556;-969;-294
1604178;1;12;1;3011;-1470;2748;-2835;601;-821;-506
1604188;1;12;1;3011;-1507;2742;-2954;699;-673;-783
1604198;1;12;1;3011;-1684;2755;-2977;760;-539;-1009
1604208;1;12;1;3011;-1893;2766;-2848;726;-369;-1111
1604218;1;12;1;3011;-2059;2725;-2530;643;-194;-999
1604228;1;12;1;3011;-2074;2633;-2308;531;-115;-802
1604238;1;12;1;3011;-1954;2591;-2180;419;-91;-605
1604248;1;12;1;3011;-1772;2592;-2183;280;-105;-363
1604258;1;12;1;3011;-1659;2476;-2345;174;-126;-150
1604268;1;12;1;3011;-1666;2373;-2519;238;-176;-193
1604278;1;12;1;3011;-1738;2329;-2651;350;-247;-488
1604288;1;12;1;3011;-1807;2470;-2633;472;-271;-785
1604298;1;12;1;3011;-1942;2472;-2556;532;-272;-955
1604308;1;12;1;3011;-2015;2478;-2474;540;-308;-1023
1604318;1;12;1;3011;-2044;2511;-2463;489;-348;-933
1604328;1;12;1;3011;-2009;2624;-2488;382;-346;-736
1604338;1;12;1;3011;-1859;2656;-2530;277;-266;-468
1604348;1;12;1;3011;-1763;2614;-2591;219;-127;-236
1604358;1;12;1;3011;-1718;2482;-2658;233;16;-134
1604368;1;12;1;3011;-1799;2343;-2642;343;92;-260
1604378;1;12;1;3011;-1927;2357;-2584;454;43;-533
1604388;1;12;1;3011;-2054;2452;-2484;499;-105;-770
1604398;1;12;1;3011;-2150;2491;-2414;471;-291;-879
1604408;1;12;1;3011;-2199;2548;-2362;399;-483;-791
1604418;1;12;1;3011;-2151;2653;-2313;255;-661;-516
1604428;1;12;1;3011;-1969;2598;-2329;92;-788;-118
1604438;1;12;1;3011;-1833;2458;-2437;-4;-796;252
1604448;1;12;1;3011;-1683;2338;-2609;-21;-696;347
1604458;1;12;1;3011;-1634;2327;-2683;-12;-527;190
1604468;1;12;1;3011;-1718;2363;-2837;9;-400;-146
1604478;1;12;1;3011;-1802;2432;-2903;28;-292;-506
1604488;1;12;1;3011;-1905;2539;-2873;51;-192;-742
1604498;1;12;1;3011;-2037;2557;-2818;55;-94;-779
1604508;1;12;1;3011;-2139;2543;-2687;74;12;-672
1604518;1;12;1;3011;-2178;2486;-2487;70;98;-488
1604528;1;12;1;3011;-2151;2428;-2314;76;85;-344
1604538;1;12;1;3011;-2088;2406;-2274;46;41;-238
1604548;1;12;1;3011;-2007;2402;-2358;-18;-50;-194
1604558;1;12;1;3011;-1905;2364;-2478;-58;-140;-253
1604568;1;12;1;3011;-1903;2380;-2576;-66;-176;-370
1604578;1;12;1;3011;-1921;2415;-2608;-100;-138;-454
1604588;1;12;1;3011;-1958;2457;-2570;-119;-86;-490
1604598;1;12;1;3011;-1983;2497;-2488;-138;-64;-440
1604608;1;12;1;3011;-2016;2522;-2491;-189;-67;-318
1604618;1;12;1;3011;-2031;2498;-2521;-251;-65;-149
1604628;1;12;1;3011;-2008;2428;-2582;-262;-56;-39
1604638;1;12;1;3011;-2017;2371;-2629;-219;-43;-15
1604648;1;12;1;3011;-1975;2382;-2591;-188;-8;-30
