timestamp;subject_id;activity;label;seq;ax;ay;az;gx;gy;gz
1539670;1;12;1;2929;127;3476;-1273;-2;-2601;-3893
1539680;1;12;1;2929;153;3434;-1484;14;-2529;-3614
1539690;1;12;1;2929;22;3234;-1697;288;-2375;-3230
1539700;1;12;1;2929;47;3163;-1753;753;-2185;-3031
1539710;1;12;1;2929;469;3432;-1712;1146;-2093;-3037
1539720;1;12;1;2929;635;3710;-1758;1242;-2499;-3281
1539730;1;12;1;2929;-180;3639;-1815;1006;-3414;-3694
1539740;1;12;1;2929;-768;3774;-1404;274;-4288;-3901
1539750;1;12;1;2929;-552;3706;-1075;-701;-4689;-3178
1539760;1;12;1;2929;-335;3074;-950;-1129;-4643;-2088
1539770;1;12;1;2929;-122;2581;-923;-616;-4351;-1492
1539780;1;12;1;2929;-61;2114;-879;550;-4248;-1507
1539790;1;12;1;2929;-307;1709;-796;1891;-4600;-1990
1539800;1;12;1;2929;-92;1377;-528;2841;-4844;-2416
1539810;1;12;1;2929;-33;1231;-320;3501;-4921;-2754
1539820;1;12;1;2929;-105;1461;-446;4046;-5186;-3090
1539830;1;12;1;2929;-478;1874;-968;4508;-6042;-3311
1539840;1;12;1;2929;-1147;2442;-1419;4704;-7153;-3618
1539850;1;12;1;2929;-2111;3381;-1537;5288;-7871;-4351
1539860;1;12;1;2929;-2695;4656;-1941;5001;-8294;-4707
1539870;1;12;1;2929;-2191;5234;-2623;3931;-8120;-4167
1539880;1;12;1;2929;-1311;4731;-3585;2888;-7070;-3009
1539890;1;12;1;2929;-775;4491;-4192;2752;-6159;-2358
1539900;1;12;1;2929;-60;4269;-4366;2939;-4624;-1532
1539910;1;12;1;2929;423;4265;-4023;3395;-2956;-582
1539920;1;12;1;2929;705;4320;-3434;3501;-1548;355
1539930;1;12;1;2929;484;4103;-2975;3361;-595;880
1539940;1;12;1;2929;71;4112;-2536;3244;-344;581
1539950;1;12;1;2929;-402;4245;-2167;3371;-898;-457
1539960;1;12;1;2929;-931;4080;-1800;3497;-1845;-1637
1539970;1;12;1;2929;-1387;3669;-1655;3448;-2313;-2430
1539980;1;12;1;2929;-1811;3028;-1884;3248;-1919;-2534
1539990;1;12;1;2929;-1748;2633;-1953;3192;-1594;-2360
1540000;1;12;1;2929;-1380;2817;-1987;3281;-1071;-2097
1540010;1;12;1;2929;-825;2991;-1935;3176;-506;-1578
1540020;1;12;1;2929;-616;3250;-1965;2835;-388;-1046
1540030;1;12;1;2929;-715;3218;-1963;2184;-661;-842
1540040;1;12;1;2929;-733;3284;-2037;1750;-1108;-1374
1540050;1;12;1;2929;-639;3571;-2231;1643;-1683;-2280
1540060;1;12;1;2929;-670;3781;-2503;1584;-1854;-2830
1540070;1;12;1;2929;-910;3856;-2875;1422;-1551;-2695
1540080;1;12;1;2929;-1153;3747;-3097;1308;-643;-2256
1540090;1;12;1;2929;-1191;3295;-2972;1445;509;-1767
1540100;1;12;1;2929;-1156;3205;-2869;1811;1501;-1605
1540110;1;12;1;2929;-1160;3262;-2602;1994;2260;-1416
1540120;1;12;1;2929;-1273;3156;-2209;1933;2612;-1299
1540130;1;12;1;2929;-1461;2921;-1956;1830;2421;-1485
1540140;1;12;1;2929;-1493;2891;-1649;1697;1870;-1797
1540150;1;12;1;2929;-1350;2955;-1370;1524;1138;-2071
1540160;1;12;1;2929;-1159;3088;-1448;1217;536;-2028
1540170;1;12;1;2930;-1154;3030;-1838;902;186;-1638
1540180;1;12;1;2930;-1398;3023;-2385;908;-100;-1457
1540190;1;12;1;2930;-1585;3250;-2800;1231;-535;-1601
1540200;1;12;1;2930;-1910;3359;-3147;1609;-828;-1907
1540210;1;12;1;2930;-2174;3394;-3257;1848;-938;-2066
1540220;1;12;1;2930;-2174;3310;-2815;1604;-617;-1715
1540230;1;12;1;2930;-1887;3021;-2291;1038;-100;-827
1540240;1;12;1;2930;-1474;2608;-2032;725;236;-283
1540250;1;12;1;2930;-1403;2351;-2122;816;158;-531
1540260;1;12;1;2930;-1360;2576;-2343;1006;-409;-1272
1540270;1;12;1;2930;-1428;2895;-2602;1129;-1105;-1937
1540280;1;12;1;2930;-1652;3179;-2852;1163;-1492;-2370
1540290;1;12;1;2930;-1812;3347;-3030;1037;-1499;-2303
1540300;1;12;1;2930;-1703;3284;-2951;852;-1135;-1698
1540310;1;12;1;2930;-1437;3000;-2749;655;-472;-903
1540320;1;12;1;2930;-1182;2591;-2540;608;242;-376
1540330;1;12;1;2930;-1021;2243;-2437;677;729;-339
1540340;1;12;1;2930;-962;2210;-2407;716;866;-712
1540350;1;12;1;2930;-980;2331;-2423;650;739;-1299
1540360;1;12;1;2930;-1088;2545;-2484;464;477;-1804
1540370;1;12;1;2930;-1305;2691;-2630;226;217;-2037
1540380;1;12;1;2930;-1604;2738;-2794;91;74;-1960
1540390;1;12;1;2930;-1849;2804;-2853;20;52;-1608
1540400;1;12;1;2930;-1877;2790;-2715;-32;275;-1165
1540410;1;12;1;2930;-1722;2745;-2574;-91;621;-757
1540420;1;12;1;2930;-1618;2608;-2517;-76;952;-498
1540430;1;12;1;2930;-1582;2514;-2536;35;1114;-511
1540440;1;12;1;2930;-1679;2549;-2662;173;1093;-718
1540450;1;12;1;2930;-1916;2684;-2748;276;843;-971
1540460;1;12;1;2930;-2098;2855;-2805;303;470;-1111
1540470;1;12;1;2930;-2153;2909;-2721;278;163;-1009
1540480;1;12;1;2930;-2031;2829;-2483;143;100;-660
1540490;1;12;1;2930;-1722;2603;-2222;41;226;-254
1540500;1;12;1;2930;-1489;2370;-2144;81;373;-21
1540510;1;12;1;2930;-1505;2326;-2342;234;378;-136
1540520;1;12;1;2930;-1600;2582;-2579;363;162;-525
1540530;1;12;1;2930;-1764;2830;-2768;370;-131;-834
1540540;1;12;1;2930;-1872;3028;-2905;302;-397;-868
1540550;1;12;1;2930;-1847;2970;-2852;115;-430;-498
1540560;1;12;1;2930;-1735;2715;-2720;-76;-196;-20
1540570;1;12;1;2930;-1502;2510;-2576;-172;177;334
1540580;1;12;1;2930;-1432;2341;-2578;-174;512;380
1540590;1;12;1;2930;-1424;2372;-2647;-119;654;148
1540600;1;12;1;2930;-1533;2511;-2701;-71;589;-203
1540610;1;12;1;2930;-1702;2649;-2649;-40;378;-501
1540620;1;12;1;2930;-1803;2713;-2623;-67;150;-595
1540630;1;12;1;2930;-1837;2621;-2573;-131;22;-444
1540640;1;12;1;2930;-1840;2508;-2539;-168;-2;-229
1540650;1;12;1;2930;-1722;2490;-2515;-164;73;-67
1540660;1;12;1;2930;-1632;2492;-2535;-151;163;-34
1540670;1;12;1;2931;-1590;2590;-2615;-131;179;-92
1540680;1;12;1;2931;-1613;2638;-2736;-138;134;-160
1540690;1;12;1;2931;-1664;2668;-2833;-145;82;-220
1540700;1;12;1;2931;-1703;2655;-2838;-152;51;-232
1540710;1;12;1;2931;-1707;2599;-2769;-177;102;-168
1540720;1;12;1;2931;-1708;2535;-2631;-200;186;-91
1540730;1;12;1;2931;-1659;2525;-2541;-242;273;-24
1540740;1;12;1;2931;-1610;2470;-2521;-230;277;-22
1540750;1;12;1;2931;-1636;2533;-2562;-191;198;-117
1540760;1;12;1;2931;-1641;2608;-2585;-176;65;-215
1540770;1;12;1;2931;-1678;2644;-2604;-201;-58;-265
1540780;1;12;1;2931;-1729;2648;-2601;-220;-147;-208
1540790;1;12;1;2931;-1771;2622;-2573;-251;-197;-80
1540800;1;12;1;2931;-1764;2539;-2530;-267;-236;61
1540810;1;12;1;2931;-1690;2465;-2467;-301;-234;192
1540820;1;12;1;2931;-1621;2401;-2467;-346;-203;271
1540830;1;12;1;2931;-1611;2367;-2506;-353;-217;215
1540840;1;12;1;2931;-1625;2457;-2595;-313;-301;59
1540850;1;12;1;2931;-1647;2612;-2698;-269;-420;-88
1540860;1;12;1;2931;-1684;2717;-2783;-261;-506;-115
1540870;1;12;1;2931;-1675;2754;-2829;-271;-492;-7
1540880;1;12;1;2931;-1692;2692;-2851;-255;-393;131
1540890;1;12;1;2931;-1667;2604;-2824;-222;-220;219
1540900;1;12;1;2931;-1589;2523;-2748;-172;-10;218
1540910;1;12;1;2931;-1502;2470;-2651;-148;187;175
1540920;1;12;1;2931;-1467;2420;-2617;-107;298;52
1540930;1;12;1;2931;-1482;2464;-2640;-64;326;-113
1540940;1;12;1;2931;-1587;2580;-2675;-9;282;-260
1540950;1;12;1;2931;-1720;2691;-2687;-4;212;-325
1540960;1;12;1;2931;-1805;2757;-2647;-22;144;-270
1540970;1;12;1;2931;-1811;2717;-2554;-73;106;-95
1540980;1;12;1;2931;-1796;2585;-2466;-116;118;102
1540990;1;12;1;2931;-1721;2526;-2467;-140;131;212
1541000;1;12;1;2931;-1639;2501;-2571;-154;87;190
1541010;1;12;1;2931;-1614;2543;-2702;-168;-1;42
1541020;1;12;1;2931;-1640;2622;-2774;-203;-84;-134
1541030;1;12;1;2931;-1691;2705;-2754;-255;-125;-222
1541040;1;12;1;2931;-1752;2700;-2687;-305;-151;-188
1541050;1;12;1;2931;-1803;2653;-2596;-365;-162;-82
1541060;1;12;1;2931;-1779;2622;-2493;-407;-161;56
1541070;1;12;1;2931;-1700;2595;-2471;-408;-195;154
1541080;1;12;1;2931;-1665;2648;-2543;-415;-245;156
1541090;1;12;1;2931;-1597;2761;-2631;-414;-294;107
1541100;1;12;1;2931;-1590;2803;-2745;-399;-328;71
1541110;1;12;1;2931;-1617;2836;-2847;-394;-330;53
1541120;1;12;1;2931;-1687;2826;-2875;-379;-318;58
1541130;1;12;1;2931;-1755;2745;-2823;-378;-296;65
1541140;1;12;1;2931;-1783;2643;-2656;-375;-269;73
1541150;1;12;1;2931;-1757;2560;-2464;-387;-255;85
1541160;1;12;1;2931;-1742;2539;-2358;-403;-321;100
1541170;1;12;1;2932;-1732;2643;-2367;-421;-480;106
1541180;1;12;1;2932;-1724;2734;-2459;-458;-696;117
1541190;1;12;1;2932;-1738;2848;-2610;-508;-884;123
1541200;1;12;1;2932;-1747;2877;-2719;-550;-998;173
1541210;1;12;1;2932;-1743;2856;-2753;-595;-1020;214
1541220;1;12;1;2932;-1732;2738;-2698;-607;-962;295
1541230;1;12;1;2932;-1726;2651;-2589;-587;-878;348
1541240;1;12;1;2932;-1711;2605;-2487;-543;-833;330
1541250;1;12;1;2932;-1729;2620;-2407;-520;-850;241
1541260;1;12;1;2932;-1714;2631;-2438;-527;-906;152
1541270;1;12;1;2932;-1700;2674;-2475;-514;-983;115
1541280;1;12;1;2932;-1714;2694;-2504;-497;-1047;127
1541290;1;12;1;2932;-1688;2723;-2560;-485;-1059;159
1541300;1;12;1;2932;-1678;2712;-2562;-472;-1050;166
1541310;1;12;1;2932;-1709;2687;-2564;-425;-1035;82
1541320;1;12;1;2932;-1697;2710;-2542;-381;-1007;-14
1541330;1;12;1;2932;-1766;2677;-2536;-380;-988;-67
1541340;1;12;1;2932;-1830;2670;-2497;-404;-995;-78
1541350;1;12;1;2932;-1828;2692;-2436;-450;-1004;-22
1541360;1;12;1;2932;-1820;2680;-2392;-504;-1010;76
1541370;1;12;1;2932;-1770;2678;-2398;-540;-1021;151
1541380;1;12;1;2932;-1694;2674;-2410;-552;-1003;216
1541390;1;12;1;2932;-1661;2664;-2439;-557;-981;213
1541400;1;12;1;2932;-1631;2680;-2442;-545;-955;174
1541410;1;12;1;2932;-1648;2669;-2458;-540;-919;126
1541420;1;12;1;2932;-1765;2654;-2495;-559;-893;57
1541430;1;12;1;2932;-1835;2670;-2491;-574;-870;14
1541440;1;12;1;2932;-1875;2675;-2460;-624;-836;46
1541450;1;12;1;2932;-1866;2662;-2395;-658;-788;103
1541460;1;12;1;2932;-1762;2664;-2324;-698;-734;145
1541470;1;12;1;2932;-1643;2652;-2295;-717;-662;177
1541480;1;12;1;2932;-1577;2635;-2320;-683;-586;151
1541490;1;12;1;2932;-1571;2656;-2401;-633;-535;53
1541500;1;12;1;2932;-1650;2696;-2472;-599;-480;-51
1541510;1;12;1;2932;-1775;2736;-2514;-595;-430;-125
1541520;1;12;1;2932;-1888;2749;-2490;-596;-397;-147
1541530;1;12;1;2932;-1954;2720;-2408;-612;-357;-111
1541540;1;12;1;2932;-1915;2679;-2297;-620;-329;-17
1541550;1;12;1;2932;-1801;2606;-2220;-637;-298;53
1541560;1;12;1;2932;-1678;2587;-2205;-625;-259;87
1541570;1;12;1;2932;-1523;2621;-2219;-621;-180;123
1541580;1;12;1;2932;-1549;2633;-2343;-626;-96;94
1541590;1;12;1;2932;-1635;2684;-2452;-606;-38;-33
1541600;1;12;1;2932;-1768;2734;-2513;-549;-2;-173
1541610;1;12;1;2932;-1905;2795;-2468;-498;38;-266
1541620;1;12;1;2932;-2002;2792;-2427;-450;53;-259
1541630;1;12;1;2932;-1968;2818;-2278;-454;77;-170
1541640;1;12;1;2932;-1840;2833;-2223;-517;131;4
1541650;1;12;1;2932;-1695;2789;-2266;-570;198;138
1541660;1;12;1;2932;-1610;2697;-2339;-571;272;153
1541670;1;12;1;2933;-1617;2657;-2394;-528;323;31
1541680;1;12;1;2933;-1678;2701;-2398;-460;324;-156
1541690;1;12;1;2933;-1790;2747;-2356;-442;311;-310
1541700;1;12;1;2933;-1903;2719;-2285;-431;278;-406
1541710;1;12;1;2933;-1991;2717;-2185;-459;222;-430
1541720;1;12;1;2933;-1991;2709;-2075;-473;140;-393
1541730;1;12;1;2933;-1914;2716;-1990;-459;39;-321
1541740;1;12;1;2933;-1700;2800;-1936;-495;-7;-180
1541750;1;12;1;2933;-1555;2784;-2075;-577;26;37
1541760;1;12;1;2933;-1648;2642;-2263;-554;53;18
1541770;1;12;1;2933;-1755;2654;-2360;-426;26;-231
1541780;1;12;1;2933;-1830;2783;-2328;-370;-9;-396
1541790;1;12;1;2933;-1917;2826;-2264;-377;-79;-462
1541800;1;12;1;2933;-1941;2739;-2155;-366;-149;-466
1541810;1;12;1;2933;-1995;2622;-2060;-327;-195;-480
1541820;1;12;1;2933;-1958;2573;-1930;-250;-241;-514
1541830;1;12;1;2933;-1881;2598;-1899;-205;-303;-496
1541840;1;12;1;2933;-1768;2669;-1894;-216;-349;-429
1541850;1;12;1;2933;-1611;2754;-2001;-283;-349;-320
1541860;1;12;1;2933;-1483;2849;-2258;-350;-290;-208
1541870;1;12;1;2933;-1448;2872;-2512;-456;-96;-101
1541880;1;12;1;2933;-1718;2809;-2709;-412;80;-248
1541890;1;12;1;2933;-1815;2896;-2682;-355;199;-461
1541900;1;12;1;2933;-1918;2940;-2481;-349;291;-571
1541910;1;12;1;2933;-1988;2916;-2309;-374;354;-514
1541920;1;12;1;2933;-2017;2836;-2192;-414;373;-425
1541930;1;12;1;2933;-2021;2748;-2116;-403;344;-336
1541940;1;12;1;2933;-1935;2776;-2032;-418;304;-237
1541950;1;12;1;2933;-1838;2824;-2058;-435;240;-99
1541960;1;12;1;2933;-1693;2805;-2125;-478;175;15
1541970;1;12;1;2933;-1552;2752;-2235;-457;152;3
1541980;1;12;1;2933;-1575;2694;-2366;-394;190;-103
1541990;1;12;1;2933;-1738;2666;-2421;-278;235;-353
1542000;1;12;1;2933;-1813;2779;-2348;-179;264;-554
1542010;1;12;1;2933;-1844;2833;-2284;-140;267;-576
1542020;1;12;1;2933;-1893;2832;-2283;-122;235;-491
1542030;1;12;1;2933;-1940;2815;-2287;-127;218;-369
1542040;1;12;1;2933;-1920;2807;-2294;-135;213;-253
1542050;1;12;1;2933;-1852;2834;-2285;-156;220;-169
1542060;1;12;1;2933;-1789;2808;-2274;-156;199;-130
1542070;1;12;1;2933;-1742;2792;-2282;-156;153;-145
1542080;1;12;1;2933;-1732;2779;-2278;-157;107;-193
1542090;1;12;1;2933;-1762;2742;-2279;-133;70;-237
1542100;1;12;1;2933;-1785;2757;-2266;-123;36;-280
1542110;1;12;1;2933;-1828;2796;-2253;-114;11;-282
1542120;1;12;1;2933;-1852;2813;-2275;-115;-52;-246
1542130;1;12;1;2933;-1841;2839;-2286;-119;-81;-200
1542140;1;12;1;2933;-1802;2839;-2282;-138;-89;-119
1542150;1;12;1;2933;-1773;2830;-2308;-175;-77;-51
1542160;1;12;1;2933;-1754;2803;-2344;-199;-48;-29
1542170;1;12;1;2934;-1727;2780;-2372;-205;-10;-52
1542180;1;12;1;2934;-1731;2750;-2382;-207;41;-98
1542190;1;12;1;2934;-1750;2709;-2370;-163;95;-174
1542200;1;12;1;2934;-1800;2709;-2321;-126;145;-268
1542210;1;12;1;2934;-1820;2751;-2244;-99;156;-337
1542220;1;12;1;2934;-1847;2829;-2178;-116;124;-325
1542230;1;12;1;2934;-1849;2858;-2174;-154;39;-246
1542240;1;12;1;2934;-1808;2844;-2249;-180;-56;-143
1542250;1;12;1;2934;-1787;2851;-2296;-192;-106;-59
1542260;1;12;1;2934;-1764;2824;-2347;-187;-120;14
1542270;1;12;1;2934;-1745;2830;-2357;-176;-95;42
1542280;1;12;1;2934;-1758;2795;-2365;-150;-60;47
1542290;1;12;1;2934;-1785;2755;-2372;-125;-39;9
1542300;1;12;1;2934;-1828;2722;-2325;-91;-44;-57
1542310;1;12;1;2934;-1860;2737;-2271;-70;-78;-116
1542320;1;12;1;2934;-1887;2768;-2263;-64;-148;-139
1542330;1;12;1;2934;-1854;2819;-2228;-79;-230;-113
1542340;1;12;1;2934;-1822;2813;-2253;-116;-290;-37
1542350;1;12;1;2934;-1799;2834;-2300;-154;-309;34
1542360;1;12;1;2934;-1748;2831;-2340;-185;-301;79
1542370;1;12;1;2934;-1733;2811;-2374;-186;-264;107
1542380;1;12;1;2934;-1727;2785;-2374;-165;-211;100
1542390;1;12;1;2934;-1769;2783;-2321;-143;-169;61
1542400;1;12;1;2934;-1785;2788;-2271;-126;-146;13
1542410;1;12;1;2934;-1787;2804;-2257;-124;-152;1
1542420;1;12;1;2934;-1789;2810;-2299;-114;-167;11
1542430;1;12;1;2934;-1803;2773;-2326;-114;-174;9
1542440;1;12;1;2934;-1795;2797;-2312;-137;-158;12
1542450;1;12;1;2934;-1785;2823;-2332;-151;-144;25
1542460;1;12;1;2934;-1767;2833;-2331;-164;-134;40
1542470;1;12;1;2934;-1766;2812;-2331;-166;-117;30
1542480;1;12;1;2934;-1783;2776;-2334;-173;-105;10
1542490;1;12;1;2934;-1789;2752;-2275;-161;-101;-11
1542500;1;12;1;2934;-1819;2753;-2249;-139;-114;-27
1542510;1;12;1;2934;-1793;2793;-2247;-132;-114;-37
1542520;1;12;1;2934;-1776;2823;-2268;-116;-127;-17
1542530;1;12;1;2934;-1770;2806;-2305;-111;-108;-5
1542540;1;12;1;2934;-1771;2801;-2318;-92;-82;-10
1542550;1;12;1;2934;-1786;2791;-2307;-64;-70;-34
1542560;1;12;1;2934;-1822;2773;-2275;-39;-71;-53
1542570;1;12;1;2934;-1840;2772;-2231;-39;-86;-60
1542580;1;12;1;2934;-1853;2778;-2249;-68;-121;-49
1542590;1;12;1;2934;-1841;2789;-2206;-101;-170;-30
1542600;1;12;1;2934;-1815;2796;-2223;-138;-231;5
1542610;1;12;1;2934;-1785;2815;-2254;-143;-276;23
1542620;1;12;1;2934;-1769;2816;-2305;-143;-286;20
1542630;1;12;1;2934;-1770;2823;-2326;-129;-266;18
1542640;1;12;1;2934;-1779;2805;-2347;-107;-223;-3
1542650;1;12;1;2934;-1812;2759;-2321;-96;-176;-38
1542660;1;12;1;2934;-1803;2761;-2274;-98;-136;-84
1554415;1;12;1;2935;-777;3904;-1170;101;-263;-1319
1554425;1;12;1;2935;-1061;3904;-1189;-108;-649;446
1554435;1;12;1;2935;-1000;3828;-1205;-108;-610;536
1554445;1;12;1;2935;-951;3778;-1171;-91;-553;573
1554455;1;12;1;2935;-896;3708;-1215;-89;-502;578
1554465;1;12;1;2935;-863;3671;-1192;-91;-460;547
1554475;1;12;1;2935;-900;3688;-1216;-88;-432;483
1554485;1;12;1;2935;-940;3727;-1240;-79;-420;417
1554495;1;12;1;2935;-1014;3774;-1274;-83;-397;380
1554505;1;12;1;2935;-1041;3832;-1267;-128;-358;388
1554515;1;12;1;2935;-1020;3858;-1258;-191;-307;438
1554525;1;12;1;2935;-965;3864;-1233;-235;-246;497
1554535;1;12;1;2935;-874;3814;-1230;-249;-178;536
1554545;1;12;1;2935;-801;3739;-1194;-216;-128;525
1554555;1;12;1;2935;-757;3679;-1157;-161;-100;432
1554565;1;12;1;2935;-720;3652;-1132;-95;-108;275
1554575;1;12;1;2935;-729;3654;-1130;-56;-141;94
1554585;1;12;1;2935;-774;3685;-1170;-50;-173;-74
1554595;1;12;1;2935;-822;3747;-1220;-70;-179;-166
1554605;1;12;1;2935;-850;3779;-1272;-114;-119;-167
1554615;1;12;1;2935;-851;3807;-1265;-141;-30;-127
1554625;1;12;1;2935;-847;3810;-1233;-156;38;-82
1554635;1;12;1;2935;-843;3832;-1220;-166;68;-80
1554645;1;12;1;2935;-833;3833;-1191;-160;46;-93
1554655;1;12;1;2935;-846;3829;-1199;-143;-4;-120
1554665;1;12;1;2935;-859;3839;-1186;-140;-45;-153
1554675;1;12;1;2935;-880;3836;-1198;-151;-60;-158
1554685;1;12;1;2935;-914;3810;-1215;-179;-36;-136
1554695;1;12;1;2935;-914;3791;-1202;-181;5;-87
1554705;1;12;1;2935;-893;3783;-1174;-179;44;-38
1554715;1;12;1;2935;-876;3760;-1149;-169;57;-15
1554725;1;12;1;2935;-891;3765;-1175;-140;31;-23
1554735;1;12;1;2935;-894;3791;-1172;-129;-5;-43
1554745;1;12;1;2935;-903;3828;-1154;-137;-31;-51
1554755;1;12;1;2935;-899;3846;-1136;-148;-52;-6
1554765;1;12;1;2935;-929;3845;-1134;-138;-66;40
1554775;1;12;1;2935;-911;3826;-1133;-133;-65;74
1554785;1;12;1;2935;-895;3806;-1139;-117;-74;94
1554795;1;12;1;2935;-862;3787;-1149;-107;-97;88
1554805;1;12;1;2935;-836;3785;-1183;-100;-123;61
1554815;1;12;1;2935;-828;3793;-1207;-109;-128;46
1554825;1;12;1;2935;-834;3787;-1220;-114;-116;30
1554835;1;12;1;2935;-837;3795;-1256;-126;-94;13
1554845;1;12;1;2935;-846;3800;-1262;-133;-74;5
1554855;1;12;1;2935;-859;3802;-1231;-162;-36;-1
1554865;1;12;1;2935;-875;3772;-1211;-179;2;-1
1554875;1;12;1;2935;-882;3780;-1197;-184;34;2
1554885;1;12;1;2935;-876;3791;-1179;-182;56;19
1554895;1;12;1;2935;-868;3795;-1138;-167;71;38
1554905;1;12;1;2935;-867;3793;-1131;-128;61;41
1554915;1;12;1;2936;-878;3802;-1114;-71;11;18
1554925;1;12;1;2936;-883;3806;-1142;-50;-29;4
1554935;1;12;1;2936;-904;3795;-1178;-54;-77;6
1554945;1;12;1;2936;-895;3786;-1200;-72;-111;22
1554955;1;12;1;2936;-884;3784;-1213;-93;-144;43
1554965;1;12;1;2936;-880;3786;-1190;-120;-149;56
1554975;1;12;1;2936;-883;3781;-1216;-117;-162;67
1554985;1;12;1;2936;-876;3793;-1219;-116;-161;58
1554995;1;12;1;2936;-867;3812;-1219;-121;-159;58
1555005;1;12;1;2936;-840;3823;-1235;-119;-173;59
1555015;1;12;1;2936;-834;3815;-1215;-132;-174;52
1555025;1;12;1;2936;-795;3803;-1192;-142;-175;44
1555035;1;12;1;2936;-760;3794;-1187;-126;-184;26
1555045;1;12;1;2936;-756;3748;-1172;-112;-199;-33
1555055;1;12;1;2936;-772;3734;-1186;-86;-223;-118
1555065;1;12;1;2936;-779;3760;-1227;-68;-227;-193
1555075;1;12;1;2936;-815;3803;-1245;-69;-207;-228
1555085;1;12;1;2936;-871;3814;-1262;-83;-180;-214
1555095;1;12;1;2936;-893;3862;-1249;-119;-140;-169
1555105;1;12;1;2936;-906;3835;-1206;-138;-124;-124
1555115;1;12;1;2936;-918;3819;-1172;-144;-117;-94
1555125;1;12;1;2936;-913;3793;-1152;-122;-125;-83
1555135;1;12;1;2936;-892;3778;-1126;-100;-125;-70
1555145;1;12;1;2936;-863;3801;-1130;-90;-129;-59
1555155;1;12;1;2936;-874;3791;-1156;-89;-155;-43
1555165;1;12;1;2936;-867;3801;-1172;-84;-177;-39
1555175;1;12;1;2936;-864;3814;-1170;-78;-197;-36
1555185;1;12;1;2936;-883;3805;-1198;-83;-194;-24
1555195;1;12;1;2936;-875;3796;-1218;-84;-188;-13
1555205;1;12;1;2936;-890;3803;-1248;-92;-159;-2
1555215;1;12;1;2936;-896;3785;-1226;-92;-136;3
1555225;1;12;1;2936;-894;3777;-1234;-96;-120;2
1555235;1;12;1;2936;-902;3784;-1219;-96;-109;13
1555245;1;12;1;2936;-919;3792;-1206;-85;-126;21
1555255;1;12;1;2936;-913;3799;-1191;-94;-150;37
1555265;1;12;1;2936;-922;3820;-1161;-107;-189;62
1555275;1;12;1;2936;-917;3818;-1148;-106;-225;96
1555285;1;12;1;2936;-868;3803;-1129;-84;-243;113
1555295;1;12;1;2936;-850;3754;-1164;-28;-251;101
1555305;1;12;1;2936;-851;3758;-1210;23;-257;55
1555315;1;12;1;2936;-853;3763;-1238;39;-236;17
1555325;1;12;1;2936;-864;3786;-1289;-4;-203;5
1555335;1;12;1;2936;-861;3805;-1287;-52;-155;7
1555345;1;12;1;2936;-851;3810;-1281;-81;-121;21
1555355;1;12;1;2936;-878;3805;-1250;-88;-112;19
1555365;1;12;1;2936;-860;3806;-1241;-96;-118;13
1555375;1;12;1;2936;-848;3790;-1210;-91;-128;8
1555385;1;12;1;2936;-843;3787;-1194;-89;-137;3
1555395;1;12;1;2936;-839;3796;-1204;-84;-144;1
1555405;1;12;1;2936;-841;3812;-1196;-88;-147;2
1555415;1;12;1;2937;-813;3818;-1192;-90;-145;19
1555425;1;12;1;2937;-800;3788;-1210;-93;-133;15
1555435;1;12;1;2937;-800;3766;-1212;-83;-132;-12
1555445;1;12;1;2937;-826;3767;-1219;-59;-155;-65
1555455;1;12;1;2937;-840;3780;-1228;-63;-167;-102
1555465;1;12;1;2937;-862;3784;-1221;-79;-161;-107
1555475;1;12;1;2937;-869;3774;-1228;-76;-152;-91
1555485;1;12;1;2937;-862;3781;-1185;-82;-130;-73
1555495;1;12;1;2937;-844;3774;-1227;-77;-115;-62
1555505;1;12;1;2937;-831;3784;-1231;-54;-116;-62
1555515;1;12;1;2937;-815;3794;-1241;-54;-145;-65
1555525;1;12;1;2937;-832;3819;-1252;-67;-174;-94
1555535;1;12;1;2937;-861;3828;-1246;-68;-204;-101
1555545;1;12;1;2937;-876;3834;-1234;-80;-211;-81
1555555;1;12;1;2937;-879;3837;-1240;-80;-206;-48
1555565;1;12;1;2937;-854;3812;-1212;-68;-168;-3
1555575;1;12;1;2937;-840;3787;-1243;-54;-142;26
1555585;1;12;1;2937;-814;3782;-1225;-49;-123;32
1555595;1;12;1;2937;-778;3783;-1250;-81;-109;27
1555605;1;12;1;2937;-751;3762;-1269;-112;-103;-7
1555615;1;12;1;2937;-738;3741;-1262;-124;-105;-54
1555625;1;12;1;2937;-768;3756;-1243;-121;-120;-115
1555635;1;12;1;2937;-785;3766;-1239;-125;-117;-179
1555645;1;12;1;2937;-783;3789;-1237;-98;-91;-216
1555655;1;12;1;2937;-803;3833;-1256;-89;-46;-220
1555665;1;12;1;2937;-810;3872;-1285;-116;14;-188
1555675;1;12;1;2937;-764;3923;-1296;-156;78;-113
1555685;1;12;1;2937;-737;3934;-1297;-190;123;-9
1555695;1;12;1;2937;-708;3894;-1285;-207;141;98
1555705;1;12;1;2937;-715;3835;-1238;-182;143;151
1555715;1;12;1;2937;-725;3804;-1231;-139;140;148
1555725;1;12;1;2937;-700;3753;-1234;-127;158;131
1555735;1;12;1;2937;-657;3757;-1275;-145;209;125
1555745;1;12;1;2937;-613;3732;-1294;-165;289;130
1555755;1;12;1;2937;-563;3713;-1288;-185;348;111
1555765;1;12;1;2937;-508;3739;-1310;-190;421;83
1555775;1;12;1;2937;-467;3713;-1315;-168;528;59
1555785;1;12;1;2937;-452;3691;-1388;-126;649;2
1555795;1;12;1;2937;-489;3701;-1446;-72;776;-114
1555805;1;12;1;2937;-561;3788;-1496;-51;877;-220
1555815;1;12;1;2937;-621;3885;-1461;-95;985;-257
1555825;1;12;1;2937;-699;3904;-1405;-142;1081;-228
1555835;1;12;1;2937;-733;3956;-1315;-165;1136;-172
1555845;1;12;1;2937;-721;3909;-1268;-177;1172;-95
1555855;1;12;1;2937;-676;3834;-1266;-154;1196;-35
1555865;1;12;1;2937;-681;3759;-1305;-153;1219;-20
1555875;1;12;1;2937;-724;3721;-1322;-160;1207;-84
1555885;1;12;1;2937;-837;3779;-1276;-161;1128;-195
1555895;1;12;1;2937;-891;3814;-1234;-214;1055;-257
1555905;1;12;1;2937;-910;3825;-1228;-229;954;-276
1555915;1;12;1;2938;-902;3772;-1212;-233;810;-310
1555925;1;12;1;2938;-858;3730;-1231;-235;671;-359
1555935;1;12;1;2938;-840;3672;-1233;-229;550;-394
1555945;1;12;1;2938;-757;3694;-1249;-262;535;-398
1555955;1;12;1;2938;-604;3751;-1303;-355;639;-358
1555965;1;12;1;2938;-489;3766;-1344;-416;785;-317
1555975;1;12;1;2938;-391;3755;-1367;-398;949;-326
1555985;1;12;1;2938;-340;3746;-1398;-314;1074;-387
1555995;1;12;1;2938;-383;3738;-1399;-195;1125;-507
1556005;1;12;1;2938;-452;3785;-1434;-106;1166;-596
1556015;1;12;1;2938;-555;3758;-1461;30;1123;-745
1556025;1;12;1;2938;-571;3814;-1374;65;1110;-785
1556035;1;12;1;2938;-735;3768;-1257;85;1031;-773
1556045;1;12;1;2938;-907;3734;-1095;84;848;-757
1556055;1;12;1;2938;-875;3824;-991;-8;637;-656
1556065;1;12;1;2938;-803;3881;-957;-108;414;-471
1556075;1;12;1;2938;-679;3929;-1004;-151;172;-247
1556085;1;12;1;2938;-505;3953;-1113;-103;48;-11
1556095;1;12;1;2938;-368;3905;-1215;38;36;252
1556105;1;12;1;2938;-337;3795;-1273;238;104;480
1556115;1;12;1;2938;-216;3737;-1281;343;262;692
1556125;1;12;1;2938;-145;3640;-1341;406;458;772
1556135;1;12;1;2938;-159;3624;-1358;404;639;654
1556145;1;12;1;2938;-166;3819;-1320;392;723;425
1556155;1;12;1;2938;-174;4101;-1310;278;692;303
1556165;1;12;1;2938;-201;4178;-1381;38;546;376
1556175;1;12;1;2938;-236;4187;-1496;-216;383;470
1556185;1;12;1;2938;-206;4132;-1468;-458;304;510
1556195;1;12;1;2938;-137;4031;-1458;-593;327;500
1556205;1;12;1;2938;-69;3954;-1452;-654;423;506
1556215;1;12;1;2938;52;3963;-1407;-736;604;489
1556225;1;12;1;2938;206;3972;-1430;-743;782;424
1556235;1;12;1;2938;272;3965;-1399;-697;961;408
1556245;1;12;1;2938;243;3854;-1277;-641;1124;398
1556255;1;12;1;2938;196;3764;-1239;-637;1187;384
1556265;1;12;1;2938;184;3647;-1236;-743;1148;349
1556275;1;12;1;2938;174;3549;-1219;-817;1020;214
1556285;1;12;1;2938;255;3534;-1177;-905;873;-26
1556295;1;12;1;2938;321;3653;-1165;-973;826;-271
1556305;1;12;1;2938;256;3823;-1198;-1043;840;-305
1556315;1;12;1;2938;118;3962;-1227;-1072;923;-124
1556325;1;12;1;2938;-170;4036;-1145;-1029;927;165
1556335;1;12;1;2938;-430;3996;-1047;-986;809;472
1556345;1;12;1;2938;-312;4069;-912;-1044;747;812
1556355;1;12;1;2938;-76;4007;-937;-1217;756;1333
1556365;1;12;1;2938;112;3744;-1088;-1404;868;1850
1556375;1;12;1;2938;345;3448;-1303;-1597;1184;2281
1556385;1;12;1;2938;599;3193;-1406;-1678;1692;2513
1556395;1;12;1;2938;575;3080;-1527;-1594;2154;2362
1556405;1;12;1;2938;263;3329;-1429;-1477;2398;1857
1556415;1;12;1;2939;3;3725;-1135;-1506;2483;1555
1556425;1;12;1;2939;-271;4063;-879;-1539;2385;1704
1556435;1;12;1;2939;-200;4461;-682;-1546;2317;2168
1556445;1;12;1;2939;-4;4472;-640;-1475;2452;2707
1556455;1;12;1;2939;-125;4098;-964;-1251;2665;3028
1556465;1;12;1;2939;-229;3908;-1557;-989;2883;2970
1556475;1;12;1;2939;-274;4020;-1954;-907;3268;2656
1556485;1;12;1;2939;-441;4102;-2078;-939;3729;2592
1556495;1;12;1;2939;-430;4514;-1824;-1048;4300;3127
1556505;1;12;1;2939;-382;4895;-1393;-1119;4944;4204
1556515;1;12;1;2939;-279;4856;-911;-1022;5452;5416
1556525;1;12;1;2939;-376;4208;-604;-580;5556;6135
1556535;1;12;1;2939;-730;3438;-685;-89;4916;5678
1556545;1;12;1;2939;-1027;2819;-1108;162;3791;4222
1556555;1;12;1;2939;-1091;3121;-1771;-38;2721;2443
1556565;1;12;1;2939;-649;4027;-2222;-880;2454;1704
1556575;1;12;1;2939;-224;5001;-2010;-1540;3434;2937
1556585;1;12;1;2939;-506;5540;-1440;-1759;4680;5440
1556595;1;12;1;2939;-987;4822;-789;-2165;5294;7915
1556605;1;12;1;2939;-813;3258;-362;-2321;5362;8805
1556615;1;12;1;2939;-453;1958;82;-2608;5161;7570
1556625;1;12;1;2939;-263;1760;-630;-1705;2862;4594
1556635;1;12;1;2939;-212;2273;-1816;-1229;2021;1193
1556645;1;12;1;2939;32;2851;-2958;-1103;1566;-1219
1556655;1;12;1;2939;-157;3950;-3430;-296;1790;-2087
1556665;1;12;1;2939;-950;4348;-3053;229;2864;-1349
1556675;1;12;1;2939;-1679;5069;-1974;-170;3527;927
1556685;1;12;1;2939;-1882;4821;-1411;-649;3474;1905
1556695;1;12;1;2939;-1739;3885;-873;-833;3357;1615
1556705;1;12;1;2939;-1433;3396;-1253;-306;2659;396
1556715;1;12;1;2939;-878;3927;-2015;134;2426;-897
1556725;1;12;1;2939;-21;5461;-2554;366;2587;-1288
1556735;1;12;1;2939;359;7212;-2271;117;2977;31
1556745;1;12;1;2939;-532;6903;-1714;-577;2372;1821
1556755;1;12;1;2939;-1166;5496;-1377;-1177;1446;2498
1556765;1;12;1;2939;-566;4527;-1166;-1485;694;2109
1556775;1;12;1;2939;-237;3758;-1414;-1154;315;998
1556785;1;12;1;2939;-470;2981;-2031;-396;59;-516
1556795;1;12;1;2939;-260;3429;-2148;-3;571;-1477
1556805;1;12;1;2939;474;4364;-1991;-71;1862;-1117
1556815;1;12;1;2939;987;5497;-1623;-648;3215;558
1556825;1;12;1;2939;1111;5743;-1166;-1245;3842;2595
1556835;1;12;1;2939;1169;5075;-756;-1696;3488;3783
1556845;1;12;1;2939;886;3601;-688;-1705;2849;3118
1556855;1;12;1;2939;745;2968;-808;-926;2045;1313
1556865;1;12;1;2939;429;2651;-813;-227;1360;-398
1556875;1;12;1;2939;5;2633;-975;336;1161;-2011
1556885;1;12;1;2939;-279;3424;-1168;488;1396;-2417
1556895;1;12;1;2939;-80;4381;-713;105;1674;-1390
1556905;1;12;1;2939;195;4835;-19;-411;1686;276
1556915;1;12;1;2940;432;4930;626;-632;1021;1751
1556925;1;12;1;2940;505;4466;807;-449;316;2366
1556935;1;12;1;2940;725;4036;516;-416;-150;2390
1556945;1;12;1;2940;794;3750;-24;-248;-577;1858
1556955;1;12;1;2940;629;3527;-410;-224;-917;1146
1556965;1;12;1;2940;1037;3900;-537;-265;-698;605
1556975;1;12;1;2940;1237;4315;-667;-244;-949;436
1556985;1;12;1;2940;1390;4738;-382;-64;-1064;791
1556995;1;12;1;2940;1532;4890;0;6;-1566;1111
1557005;1;12;1;2940;1632;4905;101;107;-1923;1155
1557015;1;12;1;2940;1805;4876;-200;247;-2039;931
1557025;1;12;1;2940;1590;4465;-752;296;-2168;297
1557035;1;12;1;2940;934;4099;-1252;177;-2168;-753
1557045;1;12;1;2940;813;4016;-1661;-73;-1947;-1417
1557055;1;12;1;2940;1101;4253;-1643;-236;-1563;-989
1557065;1;12;1;2940;1212;4489;-1183;-204;-1270;58
1557075;1;12;1;2940;1181;4393;-651;-217;-1194;938
1557085;1;12;1;2940;1139;4025;-306;-61;-1278;1164
1557095;1;12;1;2940;1162;3706;-379;202;-1441;590
1557105;1;12;1;2940;1253;3528;-687;301;-1555;-370
1557115;1;12;1;2940;1047;3426;-1000;238;-1597;-1382
1557125;1;12;1;2940;1066;3625;-1019;-64;-1371;-2042
1557135;1;12;1;2940;1152;4001;-814;-260;-1007;-2008
1557145;1;12;1;2940;1177;4122;-642;-268;-706;-1384
1557155;1;12;1;2940;981;4088;-524;-49;-868;-818
1557165;1;12;1;2940;835;3932;-293;267;-1400;-801
1557175;1;12;1;2940;765;3610;-370;643;-1778;-1364
1557185;1;12;1;2940;576;2990;-903;1323;-1884;-2425
1557195;1;12;1;2940;498;2973;-1268;1665;-1775;-3216
1557205;1;12;1;2940;895;3379;-1406;1713;-1396;-3584
1557215;1;12;1;2940;1644;4098;-1180;1543;-995;-3064
1557225;1;12;1;2940;2070;4572;-654;1138;-765;-1774
1557235;1;12;1;2940;1794;4528;-153;952;-1166;-601
1557245;1;12;1;2940;1050;4181;20;1255;-2023;-636
1557255;1;12;1;2940;665;4113;-198;1803;-2630;-1840
1557265;1;12;1;2940;787;4400;-655;2059;-2726;-2946
1557275;1;12;1;2940;822;4224;-1197;1969;-2586;-3619
1557285;1;12;1;2940;223;3436;-1794;1957;-2415;-4525
1557295;1;12;1;2940;-33;3059;-2137;1828;-1969;-5410
1557305;1;12;1;2940;425;3247;-2131;1281;-1020;-5358
1557315;1;12;1;2940;1435;3573;-1723;575;-5;-3904
1557325;1;12;1;2940;1703;3557;-1252;237;259;-2156
1557335;1;12;1;2940;1012;3083;-611;463;-573;-1514
1557345;1;12;1;2940;291;3089;-37;1172;-1708;-2250
1557355;1;12;1;2940;273;3729;350;1760;-2515;-3319
1557365;1;12;1;2940;334;4325;71;2109;-2471;-3957
1557375;1;12;1;2940;67;4065;-876;2174;-2365;-4334
1557385;1;12;1;2940;-423;3507;-1790;2196;-2274;-5022
1557395;1;12;1;2940;-567;3335;-2146;1961;-1896;-5633
1557405;1;12;1;2940;-386;3373;-2013;1314;-978;-5505
1557415;1;12;1;2941;210;3405;-1527;469;11;-4212
1557425;1;12;1;2941;524;3153;-970;121;451;-2616
1557435;1;12;1;2941;178;2844;-698;399;-180;-1626
1557445;1;12;1;2941;-138;2903;-428;1092;-1552;-1586
1557455;1;12;1;2941;-15;3483;-105;1827;-2819;-2069
1557465;1;12;1;2941;54;4182;-310;2316;-3519;-2548
1557475;1;12;1;2941;-59;4493;-917;2465;-3674;-2940
1557485;1;12;1;2941;-412;4267;-1537;2391;-3608;-3439
1557495;1;12;1;2941;-612;4327;-1903;2232;-3372;-3951
1557505;1;12;1;2941;-664;4481;-1878;1674;-3134;-3751
1557515;1;12;1;2941;-641;4360;-1602;977;-3079;-2936
1557525;1;12;1;2941;-627;3896;-1245;598;-3214;-2025
1557535;1;12;1;2941;-535;3546;-913;562;-3507;-1400
1557545;1;12;1;2941;-425;3324;-677;839;-4041;-1263
1557555;1;12;1;2941;-441;3231;-668;1240;-4638;-1479
1557565;1;12;1;2941;-446;3442;-799;1560;-5217;-1837
1557575;1;12;1;2941;-529;3642;-1061;1701;-5697;-2102
1557585;1;12;1;2941;-704;3971;-1317;1837;-6203;-2115
1557595;1;12;1;2941;-759;4176;-1372;1878;-6519;-2096
1557605;1;12;1;2941;-821;4478;-1422;1851;-6591;-1736
1557615;1;12;1;2941;-962;4650;-1440;1764;-6695;-1067
1557625;1;12;1;2941;-852;4622;-1353;1623;-6866;-336
1557635;1;12;1;2941;-672;4336;-1214;1533;-6958;274
1557645;1;12;1;2941;-529;3981;-1167;1545;-7097;611
1557655;1;12;1;2941;-503;3584;-1276;1700;-7409;457
1557665;1;12;1;2941;-532;3315;-1421;1918;-7726;-127
1557675;1;12;1;2941;-401;3328;-1494;2082;-7911;-830
1557685;1;12;1;2941;-360;3474;-1620;2238;-7927;-1500
1557695;1;12;1;2941;-455;3710;-1742;2282;-7898;-1934
1557705;1;12;1;2941;-684;3964;-1895;2037;-7888;-1892
1557715;1;12;1;2941;-769;4125;-1938;1654;-7892;-1559
1557725;1;12;1;2941;-839;4160;-1900;1394;-7525;-1009
1557735;1;12;1;2941;-814;3992;-1860;1220;-7152;-526
1557745;1;12;1;2941;-693;3722;-1806;1161;-6774;-360
1557755;1;12;1;2941;-601;3504;-1723;1309;-6463;-533
1557765;1;12;1;2941;-546;3296;-1560;1547;-6228;-913
1557775;1;12;1;2941;-551;3271;-1494;1751;-6206;-1263
1557785;1;12;1;2941;-623;3346;-1372;2004;-6198;-1730
1557795;1;12;1;2941;-763;3446;-1318;2254;-6116;-2098
1557805;1;12;1;2941;-903;3668;-1336;2339;-6043;-2214
1557815;1;12;1;2941;-845;3701;-1222;2292;-5799;-2095
1557825;1;12;1;2941;-894;3402;-1121;2268;-5390;-1813
1557835;1;12;1;2941;-931;3177;-1047;2431;-4990;-1666
1557845;1;12;1;2941;-900;2971;-1113;2659;-4808;-1752
1557855;1;12;1;2941;-896;2965;-1323;2787;-4684;-2056
1557865;1;12;1;2941;-1000;3010;-1633;2768;-4557;-2330
1557875;1;12;1;2941;-1109;3126;-2025;2655;-4440;-2481
1557885;1;12;1;2941;-1287;3040;-2328;2571;-4072;-2755
1557895;1;12;1;2941;-1625;3258;-2664;2545;-4221;-2985
1557905;1;12;1;2941;-2033;3483;-2681;2985;-3851;-2911
1557915;1;12;1;2942;-2211;3890;-2336;3099;-3893;-2621
1557925;1;12;1;2942;-2268;4031;-1861;2991;-3732;-1999
1557935;1;12;1;2942;-2186;3845;-1360;2725;-3695;-1183
1557945;1;12;1;2942;-1944;3418;-1080;2490;-3691;-551
1557955;1;12;1;2942;-1592;3079;-1081;2308;-3574;-349
1557965;1;12;1;2942;-1360;2901;-1355;2245;-3419;-518
1557975;1;12;1;2942;-1211;2867;-1738;2312;-3162;-1033
1557985;1;12;1;2942;-1260;2935;-2157;2450;-2879;-1591
1557995;1;12;1;2942;-1389;2937;-2420;2622;-2582;-2028
1558005;1;12;1;2942;-1633;2972;-2526;2854;-2474;-2215
1558015;1;12;1;2942;-1805;2978;-2237;2884;-1950;-2353
1558025;1;12;1;2942;-2066;2970;-2188;2884;-1684;-2189
1558035;1;12;1;2942;-2500;2922;-2070;2845;-1640;-2214
1558045;1;12;1;2942;-2410;3205;-1937;2603;-1691;-2208
1558055;1;12;1;2942;-2319;3161;-2035;2135;-1826;-1985
1558065;1;12;1;2942;-2241;3057;-2197;2156;-1369;-1560
1558075;1;12;1;2942;-2158;2926;-2316;2189;-1185;-1371
1558085;1;12;1;2942;-1998;2675;-2135;2317;-520;-1416
1558095;1;12;1;2942;-1933;2514;-1997;2616;28;-1446
1558105;1;12;1;2942;-1950;2278;-1857;2970;556;-1678
1558115;1;12;1;2942;-2044;2254;-1765;3349;786;-2038
1558125;1;12;1;2942;-2122;2375;-1704;3524;755;-2414
1558135;1;12;1;2942;-2194;2683;-1730;3477;473;-2661
1558145;1;12;1;2942;-2244;2926;-1859;3194;156;-2693
1558155;1;12;1;2942;-2377;3123;-2047;2837;-177;-2581
1558165;1;12;1;2942;-2488;3090;-2092;2499;-359;-2277
1558175;1;12;1;2942;-2547;3039;-2150;2304;-423;-2012
1558185;1;12;1;2942;-2563;2841;-2179;2166;-378;-1730
1558195;1;12;1;2942;-2602;2644;-2133;2067;-240;-1554
1558205;1;12;1;2942;-2668;2511;-2095;1998;-201;-1567
1558215;1;12;1;2942;-2676;2484;-2072;1928;-318;-1732
1558225;1;12;1;2942;-2665;2494;-2072;1821;-504;-1856
1558235;1;12;1;2942;-2561;2553;-2064;1680;-713;-1901
1558245;1;12;1;2942;-2427;2538;-2002;1539;-841;-1749
1558255;1;12;1;2942;-2363;2442;-1927;1434;-749;-1518
1558265;1;12;1;2942;-2251;2311;-1886;1471;-683;-1227
1558275;1;12;1;2942;-2314;2407;-1824;1559;-333;-1196
1558285;1;12;1;2942;-2433;2596;-1891;1563;-217;-1078
1558295;1;12;1;2942;-2537;2662;-2016;1535;-291;-1031
1558305;1;12;1;2942;-2604;2655;-2120;1502;-443;-1053
1558315;1;12;1;2942;-2610;2623;-2185;1453;-548;-1004
1558325;1;12;1;2942;-2571;2503;-2205;1362;-552;-872
1558335;1;12;1;2942;-2561;2285;-2232;1276;-477;-706
1558345;1;12;1;2942;-2476;2112;-2184;1177;-335;-578
1558355;1;12;1;2942;-2450;2050;-2112;1064;-172;-547
1558365;1;12;1;2942;-2448;2085;-2117;933;-41;-562
1558375;1;12;1;2942;-2516;2245;-2186;821;2;-680
1558385;1;12;1;2942;-2555;2301;-2307;636;37;-832
1558395;1;12;1;2942;-2537;2494;-2372;470;77;-872
1558405;1;12;1;2942;-2534;2568;-2363;345;105;-781
