timestamp;subject_id;activity;label;seq;ax;ay;az;gx;gy;gz
2466928;1;15;1;4567;-12;3895;22;-541;-3886;88
2466938;1;15;1;4567;147;3916;-43;-494;-4008;250
2466948;1;15;1;4567;300;3964;-204;-558;-4140;534
2466958;1;15;1;4567;531;3837;-520;-644;-4196;1043
2466968;1;15;1;4567;527;3639;-641;-645;-4269;1371
2466978;1;15;1;4567;274;3423;-594;-678;-4378;1639
2466988;1;15;1;4567;32;3289;-447;-875;-4545;1804
2466998;1;15;1;4567;38;3240;-481;-1264;-4661;2003
2467008;1;15;1;4567;-369;2903;-577;-1777;-3980;2088
2467018;1;15;1;4567;-1773;2322;-825;-2190;-4677;2148
2467028;1;15;1;4567;-2542;2180;-1053;-2451;-5264;2049
2467038;1;15;1;4567;-2805;2238;-1389;-2557;-4818;1360
2467048;1;15;1;4567;-2504;2813;-1491;-2254;-3832;118
2467058;1;15;1;4567;-1681;3764;-1616;-1429;-3180;-921
2467068;1;15;1;4567;-368;5298;-1328;-109;-2423;-1340
2467078;1;15;1;4567;-92;6669;-1134;1064;-1579;-338
2467088;1;15;1;4567;-982;6876;-710;1605;-1325;1202
2467098;1;15;1;4567;-1934;6455;-51;1218;-1611;2149
2467108;1;15;1;4567;-2297;5895;-243;547;-1718;2483
2467118;1;15;1;4567;-1909;5022;-581;83;-1653;2787
2467128;1;15;1;4567;-1553;4394;-780;-39;-1814;2560
2467138;1;15;1;4567;-1155;4140;-931;-197;-1928;2117
2467148;1;15;1;4567;-1068;4208;-1163;-442;-1785;1413
2467158;1;15;1;4567;-1308;4532;-1364;-747;-1352;663
2467168;1;15;1;4567;-1247;5239;-1600;-1109;-573;48
2467178;1;15;1;4567;-1037;5682;-1615;-1439;154;178
2467188;1;15;1;4567;-756;5823;-1394;-1559;699;632
2467198;1;15;1;4567;-444;5855;-1006;-1504;969;1075
2467208;1;15;1;4567;-369;5598;-523;-1301;1026;1483
2467218;1;15;1;4567;-418;5074;-108;-1073;1014;1804
2467228;1;15;1;4567;-210;4546;156;-831;1049;1862
2467238;1;15;1;4568;-64;3992;226;-647;1060;1618
2467248;1;15;1;4568;-152;3613;175;-478;1068;1000
2467258;1;15;1;4568;-223;3295;72;-374;1124;313
2467268;1;15;1;4568;-256;3169;-55;-300;1199;-446
2467278;1;15;1;4568;-208;3349;-197;-311;1280;-1126
2467288;1;15;1;4568;-125;3761;-400;-364;1393;-1563
2467298;1;15;1;4568;-138;3882;-460;-352;1444;-1595
2467308;1;15;1;4568;-176;4036;-525;-386;1633;-1510
2467318;1;15;1;4568;-174;4194;-614;-421;1905;-1362
2467328;1;15;1;4568;-363;4123;-765;-495;2146;-1182
2467338;1;15;1;4568;-482;4051;-821;-582;2326;-1118
2467348;1;15;1;4568;-565;3901;-772;-765;2634;-888
2467358;1;15;1;4568;-589;3626;-576;-861;2932;-689
2467368;1;15;1;4568;-527;3274;-387;-901;3210;-456
2467378;1;15;1;4568;-444;3086;-274;-812;3455;-367
2467388;1;15;1;4568;-298;2940;-284;-553;3737;-278
2467398;1;15;1;4568;-201;2992;-287;-256;3950;-379
2467408;1;15;1;4568;-167;3103;-282;-76;4034;-556
2467418;1;15;1;4568;-218;3298;-233;-25;4010;-770
2467428;1;15;1;4568;-345;3505;-117;-158;3930;-989
2467438;1;15;1;4568;-457;3545;52;-271;3804;-939
2467448;1;15;1;4568;-418;3440;159;-313;3658;-641
2467458;1;15;1;4568;-295;3255;163;-203;3593;-230
2467468;1;15;1;4568;-120;3060;91;64;3706;131
2467478;1;15;1;4568;-66;2988;-124;507;4013;197
2467488;1;15;1;4568;-105;3151;-442;932;4375;-59
2467498;1;15;1;4568;-120;3588;-755;1167;4666;-464
2467508;1;15;1;4568;-177;3865;-986;1169;4904;-540
2467518;1;15;1;4568;-140;4104;-1016;949;5061;-567
2467528;1;15;1;4568;-92;4136;-1102;573;5231;-524
2467538;1;15;1;4568;-171;4119;-1180;165;5266;-618
2467548;1;15;1;4568;-230;4299;-1140;-246;5203;-661
2467558;1;15;1;4568;-569;4460;-959;-493;4973;-625
2467568;1;15;1;4568;-414;4566;-645;-436;4692;-343
2467578;1;15;1;4568;205;4491;-618;-42;4503;5
2467588;1;15;1;4568;459;4182;-721;372;4440;-582
2467598;1;15;1;4568;181;4278;-688;611;4209;-1711
2467608;1;15;1;4568;-336;4470;-657;270;3437;-1660
2467618;1;15;1;4568;-462;4225;-447;-286;2735;-969
2467628;1;15;1;4568;-251;3894;-178;-700;2176;-441
2467638;1;15;1;4568;-25;3638;-25;-779;1699;-465
2467648;1;15;1;4568;214;3544;-243;-594;1720;-737
2467658;1;15;1;4568;394;3452;-760;-224;1953;-933
2467668;1;15;1;4568;505;3388;-1227;29;2292;-982
2467678;1;15;1;4568;62;3061;-1341;363;2863;-1254
2467688;1;15;1;4568;15;2809;-1095;763;3340;-1327
2467698;1;15;1;4568;483;2669;-688;885;3642;-797
2467708;1;15;1;4568;1332;2548;-357;922;3992;-227
2467718;1;15;1;4568;1679;2341;-445;1058;4389;-224
2467728;1;15;1;4568;1236;2080;-607;1350;4887;-663
2467738;1;15;1;4569;-105;1498;-293;1599;6058;-1651
2467748;1;15;1;4569;-1893;1033;747;2146;6251;-3255
2467758;1;15;1;4569;-3537;1859;1848;2299;4138;-5084
2467768;1;15;1;4569;-5221;3793;3115;1586;1241;-6397
2467778;1;15;1;4569;-4957;6856;4121;-407;-1673;-6526
2467788;1;15;1;4569;-2781;9002;3725;-3307;-2153;-4155
2467798;1;15;1;4569;-2028;8097;1684;-4605;-1822;-556
2467808;1;15;1;4569;-1496;7348;-195;-3653;-1430;1950
2467818;1;15;1;4569;-1453;6919;-1666;-1443;-570;3060
2467828;1;15;1;4569;-1796;5473;-1469;486;552;3076
2467838;1;15;1;4569;-1600;4739;-420;1309;1309;1731
2467848;1;15;1;4569;-1223;4476;620;1065;1446;387
2467858;1;15;1;4569;-1106;4450;1651;439;959;-451
2467868;1;15;1;4569;-937;4667;2456;-165;130;-638
2467878;1;15;1;4569;-971;4801;2874;-523;-727;-526
2467888;1;15;1;4569;-900;4876;2717;-431;-1410;-428
2467898;1;15;1;4569;-873;4943;1963;157;-2077;-451
2467908;1;15;1;4569;-887;5405;1028;867;-2510;-375
2467918;1;15;1;4569;-1126;5637;128;1359;-2646;-13
2467928;1;15;1;4569;-1181;5633;-576;1498;-2560;174
2467938;1;15;1;4569;-1012;5228;-1148;1332;-1998;245
2467948;1;15;1;4569;-799;4679;-1416;1141;-1340;193
2467958;1;15;1;4569;-510;4225;-1514;991;-768;209
2467968;1;15;1;4569;-228;3910;-1389;951;-335;177
2467978;1;15;1;4569;-96;3773;-1019;1043;-315;240
2467988;1;15;1;4569;-28;3951;-650;1199;-144;17
2467998;1;15;1;4569;-144;4358;-365;1234;-123;-163
2468008;1;15;1;4569;-358;4659;-177;1071;-469;-260
2468018;1;15;1;4569;-566;4770;-228;795;-790;-184
2468028;1;15;1;4569;-687;4418;-186;469;-922;142
2468038;1;15;1;4569;-546;3845;-118;263;-1009;433
2468048;1;15;1;4569;-294;3454;-133;282;-718;511
2468058;1;15;1;4569;-189;3256;-329;429;-431;444
2468068;1;15;1;4569;43;3171;-639;715;-338;345
2468078;1;15;1;4569;15;3379;-1033;1032;-24;202
2468088;1;15;1;4569;-184;3554;-1212;1141;288;136
2468098;1;15;1;4569;-306;3882;-1319;1069;580;-33
2468108;1;15;1;4569;-473;4077;-1348;751;847;-221
2468118;1;15;1;4569;-763;4103;-1292;336;983;-159
2468128;1;15;1;4569;-872;3862;-1040;28;1163;131
2468138;1;15;1;4569;-783;3604;-726;-56;1380;225
2468148;1;15;1;4569;-704;3473;-391;80;1168;285
2468158;1;15;1;4569;-474;3590;-189;234;829;634
2468168;1;15;1;4569;-321;3660;14;381;564;1029
2468178;1;15;1;4569;-162;3543;143;600;273;1215
2468188;1;15;1;4569;-264;3410;224;954;-156;1083
2468198;1;15;1;4569;-458;3339;375;1243;-610;915
2468208;1;15;1;4569;-285;3314;592;1355;-998;937
2468218;1;15;1;4569;-22;2988;550;1374;-1327;1052
2468228;1;15;1;4569;247;2625;409;1548;-1714;798
2468238;1;15;1;4570;610;2795;143;1835;-1917;250
2468248;1;15;1;4570;535;3234;-290;2032;-1980;-285
2468258;1;15;1;4570;203;3696;-618;2047;-2027;-692
2468268;1;15;1;4570;-80;3970;-751;1947;-2083;-930
2468278;1;15;1;4570;-337;4007;-572;1984;-2369;-957
2468288;1;15;1;4570;-606;3980;-85;2316;-2962;-623
2468298;1;15;1;4570;-705;3801;323;2708;-3552;52
2468308;1;15;1;4570;-701;3436;729;3193;-4306;1099
2468318;1;15;1;4570;-341;3150;1026;3631;-5055;2214
2468328;1;15;1;4570;779;3015;1085;4089;-5548;3263
2468338;1;15;1;4570;1207;2710;723;4663;-5667;4295
2468348;1;15;1;4570;496;2045;-81;5085;-5705;5102
2468358;1;15;1;4570;-1185;1600;-578;4879;-5997;4746
2468368;1;15;1;4570;-2708;1770;-518;3798;-6572;3266
2468378;1;15;1;4570;-3132;2355;-438;2210;-6540;771
2468388;1;15;1;4570;-3382;3256;-766;779;-5846;-2148
2468398;1;15;1;4570;-2984;4987;-726;225;-5721;-4514
2468408;1;15;1;4570;-425;8278;-833;557;-5438;-4222
2468418;1;15;1;4570;-227;10369;-306;2477;-4104;-1567
2468428;1;15;1;4570;-1923;10716;531;4275;-3216;1495
2468438;1;15;1;4570;-2694;8568;-226;4645;-2526;3209
2468448;1;15;1;4570;-2123;6580;-1343;4027;-1676;3682
2468458;1;15;1;4570;-1935;4658;-2035;3110;-1965;3277
2468468;1;15;1;4570;-821;4372;-2135;2295;-2476;2236
2468478;1;15;1;4570;-420;4154;-1799;1368;-2518;1176
2468488;1;15;1;4570;-614;3942;-1756;442;-3323;-33
2468498;1;15;1;4570;-562;4317;-1503;-209;-3510;-927
2468508;1;15;1;4570;-915;4778;-1008;-722;-3770;-1228
2468518;1;15;1;4570;-1215;4912;-817;-1314;-4049;-997
2468528;1;15;1;4570;-1004;4769;-795;-1490;-4237;-411
2468538;1;15;1;4570;-839;4619;-540;-1233;-4602;556
2468548;1;15;1;4570;-867;4323;-112;-704;-5223;1407
2468558;1;15;1;4570;-376;3953;-146;-208;-5837;1804
2468568;1;15;1;4570;-283;3510;2;271;-5579;1936
2468578;1;15;1;4570;-147;3094;-40;853;-5937;1963
2468588;1;15;1;4570;-168;2703;-112;1344;-5669;1746
2468598;1;15;1;4570;-213;2568;-193;1721;-5732;1601
2468608;1;15;1;4570;-40;2417;-247;1852;-5809;1713
2468618;1;15;1;4570;169;2063;-285;1773;-5792;1772
2468628;1;15;1;4570;329;1712;-395;1545;-5616;1599
2468638;1;15;1;4570;505;1409;-482;1288;-5120;1151
2468648;1;15;1;4570;681;1305;-501;1073;-4752;698
2468658;1;15;1;4570;784;1274;-508;882;-4316;329
2468668;1;15;1;4570;743;1299;-405;679;-3973;-39
2468678;1;15;1;4570;552;1477;-199;470;-3768;-452
2468688;1;15;1;4570;383;2069;134;284;-3859;-898
2468698;1;15;1;4570;773;3085;525;49;-4258;-951
2468708;1;15;1;4570;1385;4216;925;-309;-4546;-167
2468718;1;15;1;4570;842;3838;1112;-558;-4505;1380
2468728;1;15;1;4570;175;3486;1691;-211;-5106;2372
2468738;1;15;1;4571;-287;2136;1279;79;-4785;2944
2468748;1;15;1;4571;-2680;1348;627;870;-4965;760
2468758;1;15;1;4571;-4991;2490;-211;1707;-5683;-1931
2468768;1;15;1;4571;-5308;4438;-1478;1745;-5824;-3290
2468778;1;15;1;4571;-4573;6364;-2565;1302;-5875;-3060
2468788;1;15;1;4571;-3906;8269;-3684;912;-6069;-1021
2468798;1;15;1;4571;-3783;8776;-3653;211;-5804;1995
2468808;1;15;1;4571;-3037;7254;-2323;-457;-5600;3789
2468818;1;15;1;4571;-1830;5822;-1079;-660;-5546;4145
2468828;1;15;1;4571;-1402;5213;-616;-769;-5826;3363
2468838;1;15;1;4571;-1433;4975;-1015;-847;-6146;2270
2468848;1;15;1;4571;-1669;4775;-1497;-693;-6128;1394
2468858;1;15;1;4571;-1809;4775;-1717;-371;-5808;639
2468868;1;15;1;4571;-1974;4845;-1812;-131;-5539;-49
2468878;1;15;1;4571;-2301;4974;-1734;-97;-5628;-482
2468888;1;15;1;4571;-2518;5235;-1349;-404;-6032;-382
2468898;1;15;1;4571;-2318;5327;-874;-838;-6585;42
2468908;1;15;1;4571;-1973;5383;-474;-1115;-7214;431
2468918;1;15;1;4571;-1874;5427;-403;-1123;-7902;704
2468928;1;15;1;4571;-1946;5313;-527;-891;-8584;1020
2468938;1;15;1;4571;-1810;5073;-586;-471;-9041;1355
2468948;1;15;1;4571;-1524;4759;-641;-57;-9318;1663
2468958;1;15;1;4571;-1157;4382;-810;336;-9419;1859
2468968;1;15;1;4571;-798;3983;-1055;665;-9290;2023
2468978;1;15;1;4571;-581;3575;-1351;877;-9012;1873
2468988;1;15;1;4571;-528;3392;-1499;890;-8649;1440
2468998;1;15;1;4571;-631;3312;-1581;685;-8293;982
2469008;1;15;1;4571;-661;3536;-1580;313;-7959;529
2469018;1;15;1;4571;-663;3658;-1401;-104;-7738;351
2469028;1;15;1;4571;-611;3848;-1222;-336;-7538;282
2469038;1;15;1;4571;-429;4079;-1019;-566;-7521;584
2469048;1;15;1;4571;-194;3699;-834;-431;-7425;1068
2469058;1;15;1;4571;-27;3494;-708;-53;-7206;1437
2469068;1;15;1;4571;234;3302;-745;202;-6866;1701
2469078;1;15;1;4571;468;3215;-905;374;-6696;1848
2469088;1;15;1;4571;338;3025;-980;448;-6536;2050
2469098;1;15;1;4571;294;2765;-953;330;-6310;2244
2469108;1;15;1;4571;382;2619;-854;69;-6014;2147
2469118;1;15;1;4571;275;2500;-736;-345;-5930;2035
2469128;1;15;1;4571;306;2555;-692;-683;-6109;1916
2469138;1;15;1;4571;358;2733;-622;-930;-6341;1916
2469148;1;15;1;4571;185;2985;-424;-956;-6612;2253
2469158;1;15;1;4571;265;2998;-245;-928;-6950;3104
2469168;1;15;1;4571;454;2718;-179;-859;-7175;3866
2469178;1;15;1;4571;298;2194;-446;-892;-6970;3965
2469188;1;15;1;4571;-1530;1793;-523;-1204;-6989;3327
2469198;1;15;1;4571;-3636;1476;-1222;-1735;-7764;2711
2469208;1;15;1;4571;-4125;2242;-1857;-2360;-6883;817
2469218;1;15;1;4571;-4221;3537;-2292;-2845;-5349;-2033
2469228;1;15;1;4571;-2313;5823;-2318;-3027;-4443;-2317
2469238;1;15;1;4572;-331;6474;-1205;-2016;-4654;969
2469248;1;15;1;4572;621;6307;201;-40;-5417;4144
2469258;1;15;1;4572;27;5442;1557;1527;-4470;4627
2469268;1;15;1;4572;-1994;4256;1402;2036;-3941;3671
2469278;1;15;1;4572;-2469;3559;530;1849;-3298;2900
2469288;1;15;1;4572;-1957;3277;-932;1089;-2693;2153
2469298;1;15;1;4572;-1287;3340;-1917;171;-2490;1579
2469308;1;15;1;4572;-702;3586;-2180;-415;-2436;957
2469318;1;15;1;4572;-233;4155;-1962;-636;-1978;592
2469328;1;15;1;4572;-147;4548;-1443;-741;-1184;596
2469338;1;15;1;4572;-264;4414;-862;-699;-105;403
2469348;1;15;1;4572;-315;4381;-392;-354;915;163
2469358;1;15;1;4572;-360;4534;-229;211;1669;27
2469368;1;15;1;4572;-332;4840;-259;578;2110;-38
2469378;1;15;1;4572;-347;4777;-195;593;2261;239
2469388;1;15;1;4572;-174;4498;81;362;2085;336
2469398;1;15;1;4572;-12;4128;277;147;1788;341
2469408;1;15;1;4572;74;3589;408;8;1571;309
2469418;1;15;1;4572;110;3207;341;16;1533;15
2469428;1;15;1;4572;81;3128;229;133;1585;-355
2469438;1;15;1;4572;108;3182;-58;152;1689;-702
2469448;1;15;1;4572;150;3541;-422;99;1926;-1127
2469458;1;15;1;4572;131;3937;-667;21;2208;-1243
2469468;1;15;1;4572;151;4249;-785;-88;2432;-1132
2469478;1;15;1;4572;-21;4364;-738;-248;2676;-934
2469488;1;15;1;4572;-90;4432;-629;-421;2980;-838
2469498;1;15;1;4572;-21;4404;-673;-692;3339;-651
2469508;1;15;1;4572;238;4231;-778;-1009;3713;-512
2469518;1;15;1;4572;317;3987;-923;-1231;4184;-479
2469528;1;15;1;4572;223;3856;-1013;-1323;4710;-456
2469538;1;15;1;4572;75;3798;-1022;-1392;5122;-264
2469548;1;15;1;4572;-17;3607;-959;-1481;5411;-223
2469558;1;15;1;4572;24;3540;-896;-1624;5568;-509
2469568;1;15;1;4572;46;3630;-851;-1973;5606;-602
2469578;1;15;1;4572;-2;3666;-769;-2293;5572;-416
2469588;1;15;1;4572;-56;3650;-678;-2373;5572;-220
2469598;1;15;1;4572;52;3793;-651;-2300;5631;-11
2469608;1;15;1;4572;276;3961;-741;-2201;5615;496
2469618;1;15;1;4572;293;3999;-714;-1997;5492;903
2469628;1;15;1;4572;916;4292;-441;-1622;5392;1806
2469638;1;15;1;4572;1768;4117;-400;-1168;5782;3524
2469648;1;15;1;4572;1838;2981;-550;-352;6538;4887
2469658;1;15;1;4572;1457;1851;-736;753;7406;4957
2469668;1;15;1;4572;599;823;-1045;1909;8528;3355
2469678;1;15;1;4572;-925;498;-761;2375;10590;102
2469688;1;15;1;4572;-2570;1817;120;1996;9191;-2936
2469698;1;15;1;4572;-3787;4145;1456;521;5897;-3664
2469708;1;15;1;4572;-3355;6868;2505;-2032;4060;-3560
2469718;1;15;1;4572;-1994;8633;1767;-4924;3880;-1477
2469728;1;15;1;4572;-2865;7786;-282;-5533;3959;1213
2469738;1;15;1;4573;-3367;6707;-1441;-3192;4119;1763
2469748;1;15;1;4573;-3138;6653;-1872;-381;4060;1676
2469758;1;15;1;4573;-2894;5978;-786;857;4087;1849
2469768;1;15;1;4573;-2457;5657;524;478;3730;1485
2469778;1;15;1;4573;-2189;5159;1405;-372;2740;1127
2469788;1;15;1;4573;-1720;4750;2083;-1073;1469;931
2469798;1;15;1;4573;-1806;4196;2394;-1273;255;442
2469808;1;15;1;4573;-1866;4033;2182;-1099;-788;-396
2469818;1;15;1;4573;-1627;4485;1622;-590;-1652;-927
2469828;1;15;1;4573;-1184;5032;852;61;-2221;-729
2469838;1;15;1;4573;-713;5246;233;590;-2848;58
2469848;1;15;1;4573;-537;5092;-306;956;-3259;666
2469858;1;15;1;4573;-546;4854;-658;1173;-3661;816
2469868;1;15;1;4573;-584;4527;-780;1157;-4034;664
2469878;1;15;1;4573;-556;4274;-753;1016;-4329;307
2469888;1;15;1;4573;-539;3981;-637;921;-4591;-91
2469898;1;15;1;4573;-697;3651;-338;1079;-4881;-257
2469908;1;15;1;4573;-730;3418;19;1433;-5116;-301
2469918;1;15;1;4573;-521;3369;306;1802;-5264;-150
