timestamp;subject_id;activity;label;seq;ax;ay;az;gx;gy;gz
2477327;1;15;1;4583;-1342;3261;716;2356;-3487;-3199
2477337;1;15;1;4583;-2225;4555;351;2458;-4427;-3518
2477347;1;15;1;4583;-2799;5947;-39;1931;-5187;-3272
2477357;1;15;1;4583;-2561;7139;-542;861;-5511;-2031
2477367;1;15;1;4583;-2182;7132;-1217;-398;-5437;-96
2477377;1;15;1;4583;-1683;5762;-1802;-1009;-4974;1603
2477387;1;15;1;4583;-922;4412;-2192;-932;-4155;2698
2477397;1;15;1;4583;-274;3297;-2492;-491;-3372;2841
2477407;1;15;1;4583;1;2864;-2595;53;-2725;2189
2477417;1;15;1;4583;-171;2836;-2328;429;-2285;1295
2477427;1;15;1;4583;-266;3010;-1583;498;-2174;245
2477437;1;15;1;4583;-357;3307;-770;342;-2445;-780
2477447;1;15;1;4583;-484;3606;-127;78;-3026;-1357
2477457;1;15;1;4583;-312;4002;100;-214;-3576;-1320
2477467;1;15;1;4583;-255;4315;-253;-376;-4066;-983
2477477;1;15;1;4583;-404;4712;-853;-160;-4542;-818
2477487;1;15;1;4583;-594;5260;-1383;195;-4839;-770
2477497;1;15;1;4583;-951;5577;-1646;375;-4935;-720
2477507;1;15;1;4583;-1290;5655;-1584;341;-4935;-562
2477517;1;15;1;4583;-1406;5099;-1356;368;-4860;-91
2477527;1;15;1;4583;-1350;4173;-985;776;-4806;372
2477537;1;15;1;4583;-858;3460;-634;1368;-4775;685
2477547;1;15;1;4583;-162;2871;-588;1905;-4782;1131
2477557;1;15;1;4583;523;2741;-888;2368;-4840;1523
2477567;1;15;1;4583;830;3074;-1292;2616;-4963;1596
2477577;1;15;1;4583;612;3633;-1691;2623;-5086;1364
2477587;1;15;1;4583;266;4290;-1805;2254;-5097;1031
2477597;1;15;1;4583;-257;4732;-1816;1709;-5007;824
2477607;1;15;1;4583;-937;4487;-1544;1317;-4833;1006
2477617;1;15;1;4583;-1325;3722;-1072;1472;-4725;1468
2477627;1;15;1;4583;-1487;2880;-427;1982;-4720;2094
2477637;1;15;1;4583;-1063;2264;220;2462;-4552;2826
2477647;1;15;1;4583;-474;2082;792;2904;-3978;3635
2477657;1;15;1;4583;362;2277;637;3196;-4553;4743
2477667;1;15;1;4583;606;2478;265;3288;-4951;5485
2477677;1;15;1;4583;368;2522;-716;3308;-5262;5489
2477687;1;15;1;4583;-112;2945;-1397;3300;-5194;5033
2477697;1;15;1;4583;-794;3631;-1689;3351;-4949;4295
2477707;1;15;1;4584;-1192;4387;-1713;3563;-4626;3519
2477717;1;15;1;4584;-1301;5129;-1664;3687;-4106;2627
2477727;1;15;1;4584;-1249;5758;-1477;3527;-3339;1464
2477737;1;15;1;4584;-1424;6062;-1229;3154;-2912;697
2477747;1;15;1;4584;-1795;6113;-847;2424;-3097;591
2477757;1;15;1;4584;-1782;5832;-100;1427;-3672;1276
2477767;1;15;1;4584;-1367;5132;609;639;-4472;2086
2477777;1;15;1;4584;-636;4567;949;156;-5011;2689
2477787;1;15;1;4584;252;4144;717;237;-5178;3070
2477797;1;15;1;4584;693;4012;99;806;-5284;3051
2477807;1;15;1;4584;640;4258;-680;1243;-5247;2525
2477817;1;15;1;4584;310;4485;-1378;1394;-5063;1674
2477827;1;15;1;4584;-42;4774;-1796;1281;-4620;752
2477837;1;15;1;4584;-164;5194;-1836;931;-3741;195
2477847;1;15;1;4584;-440;4890;-1594;586;-2700;-73
2477857;1;15;1;4584;-549;4189;-1133;489;-1750;-411
2477867;1;15;1;4584;-592;3476;-649;682;-1182;-1071
2477877;1;15;1;4584;-580;3131;-173;1000;-1020;-1737
2477887;1;15;1;4584;-562;3189;162;1311;-1193;-2058
2477897;1;15;1;4584;-477;3249;425;1548;-1720;-1826
2477907;1;15;1;4584;-441;3335;626;1775;-2512;-1486
2477917;1;15;1;4584;-535;3471;745;1956;-3355;-1084
2477927;1;15;1;4584;-538;3670;809;1932;-4049;-568
2477937;1;15;1;4584;-436;3797;702;1719;-4627;5
2477947;1;15;1;4584;-345;3639;408;1353;-4928;471
2477957;1;15;1;4584;-569;3152;143;1118;-5098;555
2477967;1;15;1;4584;-749;2874;-186;1094;-5190;225
2477977;1;15;1;4584;-877;3016;-568;1223;-5026;-205
2477987;1;15;1;4584;-1046;3688;-1032;1277;-4681;-669
2477997;1;15;1;4584;-1124;4386;-1310;1325;-4121;-824
2478007;1;15;1;4584;-1379;4876;-1578;1319;-3481;-534
2478017;1;15;1;4584;-1700;5012;-1719;1275;-3324;-216
2478027;1;15;1;4584;-1834;4947;-1592;1137;-3124;64
2478037;1;15;1;4584;-1926;4575;-1248;1003;-3586;386
2478047;1;15;1;4584;-1829;4063;-888;851;-3869;713
2478057;1;15;1;4584;-1789;3754;-572;684;-4529;716
2478067;1;15;1;4584;-1934;3540;-293;533;-5510;626
2478077;1;15;1;4584;-2208;3463;-169;308;-7321;442
2478087;1;15;1;4584;-2589;3554;55;112;-8886;454
2478097;1;15;1;4584;-2875;3647;225;-114;-10346;566
2478107;1;15;1;4584;-2898;3733;-78;-265;-11013;824
2478117;1;15;1;4584;-3002;3904;-671;-245;-11640;1102
2478127;1;15;1;4584;-2756;4382;-1150;-264;-12125;1560
2478137;1;15;1;4584;-1486;4715;-2017;-279;-13308;1932
2478147;1;15;1;4584;-1249;4850;-2544;-495;-12583;1904
2478157;1;15;1;4584;-1204;4604;-2975;-780;-13043;1962
2478167;1;15;1;4584;-1203;4244;-2836;-943;-13625;1491
2478177;1;15;1;4584;-1103;4009;-2352;-1038;-13780;1155
2478187;1;15;1;4584;-932;3683;-1873;-1188;-13293;772
2478197;1;15;1;4584;-1024;3337;-1484;-1129;-12696;309
2478207;1;15;1;4585;-1081;3375;-1325;-786;-12300;-143
2478217;1;15;1;4585;-519;3722;-1312;-464;-12023;-284
2478227;1;15;1;4585;-548;3647;-1389;-234;-11361;-224
2478237;1;15;1;4585;-568;3805;-1367;-41;-11068;-183
2478247;1;15;1;4585;-178;3617;-1553;434;-11213;-58
2478257;1;15;1;4585;74;3628;-1544;1100;-10046;87
2478267;1;15;1;4585;122;3414;-1509;1531;-9349;435
2478277;1;15;1;4585;1075;3304;-1310;2031;-8715;700
2478287;1;15;1;4585;1817;3094;-1223;2430;-7376;934
2478297;1;15;1;4585;1628;2880;-1322;2524;-6328;958
2478307;1;15;1;4585;1530;2670;-1634;2204;-5253;877
2478317;1;15;1;4585;1114;2389;-2280;1790;-3939;565
2478327;1;15;1;4585;322;2173;-2778;1136;-3449;-53
2478337;1;15;1;4585;-281;2457;-2402;493;-3520;-290
2478347;1;15;1;4585;-345;2670;-1687;14;-4025;382
2478357;1;15;1;4585;105;3027;-1050;-356;-4399;1632
2478367;1;15;1;4585;-419;2698;-470;-864;-4697;3090
2478377;1;15;1;4585;-1278;1720;-407;-1420;-5005;3888
2478387;1;15;1;4585;-2130;956;-588;-2074;-5318;3084
2478397;1;15;1;4585;-2491;1291;-1195;-2351;-4791;900
2478407;1;15;1;4585;-3668;2307;-2020;-2277;-3802;-1137
2478417;1;15;1;4585;-3441;3818;-2044;-1323;-3278;-2449
2478427;1;15;1;4585;-1104;6139;-1519;308;-3344;-1890
2478437;1;15;1;4585;-334;7093;-1077;1716;-785;253
2478447;1;15;1;4585;-1850;6375;-1109;2719;413;1726
2478457;1;15;1;4585;-1884;5572;-1872;2467;813;1732
2478467;1;15;1;4585;-1698;4592;-2920;1694;1101;1504
2478477;1;15;1;4585;-1596;4066;-3635;948;1390;1032
2478487;1;15;1;4585;-2043;3417;-4029;94;1767;1029
2478497;1;15;1;4585;-2436;2789;-3867;-483;2614;809
2478507;1;15;1;4585;-2969;2740;-3027;-1045;3430;-146
2478517;1;15;1;4585;-3388;3441;-1565;-1508;3567;-1667
2478527;1;15;1;4585;-2808;5027;350;-1765;3136;-2760
2478537;1;15;1;4585;-1837;6691;1583;-1893;2237;-2856
2478547;1;15;1;4585;-1734;7537;1804;-2042;1803;-1874
2478557;1;15;1;4585;-1267;7753;1261;-1996;1123;-383
2478567;1;15;1;4585;-581;7206;148;-1405;1189;1038
2478577;1;15;1;4585;-442;6407;-939;-937;1646;1735
2478587;1;15;1;4585;-536;5372;-1855;-1039;2036;1991
2478597;1;15;1;4585;-1117;4330;-2510;-1407;2297;1535
2478607;1;15;1;4585;-1316;4189;-2534;-2129;2230;773
2478617;1;15;1;4585;-896;4087;-1981;-3359;2427;491
2478627;1;15;1;4585;-638;3665;-1483;-4358;2782;344
2478637;1;15;1;4585;-741;3271;-1108;-4523;2868;38
2478647;1;15;1;4585;-279;4176;-749;-4013;2300;-116
2478657;1;15;1;4585;233;5435;-488;-2980;1905;819
2478667;1;15;1;4585;382;5731;-86;-1932;2095;2540
2478677;1;15;1;4585;167;4759;36;-1232;2320;3336
2478687;1;15;1;4585;207;3744;-308;-1263;2028;3335
2478697;1;15;1;4585;333;2775;-1034;-1822;1936;3465
2478707;1;15;1;4586;556;1787;-1638;-2849;2350;3806
2478717;1;15;1;4586;769;880;-1936;-3568;3036;3816
2478727;1;15;1;4586;710;43;-2036;-4107;4173;3485
2478737;1;15;1;4586;909;-554;-2511;-4125;5267;2963
2478747;1;15;1;4586;1338;-437;-2866;-3221;6250;2066
2478757;1;15;1;4586;171;39;-2372;-1697;7709;1563
2478767;1;15;1;4586;-2023;334;-1205;-480;7526;972
2478777;1;15;1;4586;-3664;1654;106;-180;6220;330
2478787;1;15;1;4586;-4585;3183;1094;-994;5053;-273
2478797;1;15;1;4586;-4438;4686;879;-2111;3748;-959
2478807;1;15;1;4586;-3441;6423;-247;-3316;2286;-1433
2478817;1;15;1;4586;-2960;7487;-1604;-4283;1262;-1441
2478827;1;15;1;4586;-2324;7806;-2448;-4729;950;-281
2478837;1;15;1;4586;-1564;6929;-2864;-3972;1890;1957
2478847;1;15;1;4586;-1658;5325;-3072;-2215;3094;3374
2478857;1;15;1;4586;-1411;4423;-2438;-535;4119;3438
2478867;1;15;1;4586;-1037;4022;-1704;268;4892;3182
2478877;1;15;1;4586;-737;3623;-1183;203;5157;2766
2478887;1;15;1;4586;-721;3374;-865;-396;4856;1851
2478897;1;15;1;4586;-1081;3255;-782;-1310;4265;212
2478907;1;15;1;4586;-1566;3175;-902;-2181;3310;-1809
2478917;1;15;1;4586;-2127;3629;-1212;-2701;2317;-3365
2478927;1;15;1;4586;-2552;4590;-1453;-3015;1520;-3779
2478937;1;15;1;4586;-2709;5528;-1472;-3188;962;-3245
2478947;1;15;1;4586;-2428;6141;-1466;-3166;884;-2063
2478957;1;15;1;4586;-1885;6334;-1516;-2866;1050;-979
2478967;1;15;1;4586;-1341;6124;-1626;-2222;1368;-363
2478977;1;15;1;4586;-988;5759;-1934;-1678;1704;-127
2478987;1;15;1;4586;-706;4851;-2263;-1375;2068;-232
2478997;1;15;1;4586;-530;4078;-2495;-1260;2677;-1036
2479007;1;15;1;4586;-699;3469;-2651;-1217;3154;-1938
2479017;1;15;1;4586;-1063;3190;-2445;-1268;3449;-2732
2479027;1;15;1;4586;-1336;3151;-1843;-1298;3548;-3192
2479037;1;15;1;4586;-1518;3597;-1025;-1264;3308;-3359
2479047;1;15;1;4586;-1249;4136;-496;-1383;2992;-2951
2479057;1;15;1;4586;-1110;4488;-338;-1503;2420;-2530
2479067;1;15;1;4586;-796;4802;-351;-1660;1721;-2002
2479077;1;15;1;4586;-526;4346;-467;-1646;1026;-1361
2479087;1;15;1;4586;-544;3486;-558;-1257;362;-893
2479097;1;15;1;4586;-413;2750;-637;-740;-189;-676
2479107;1;15;1;4586;-228;2254;-783;-272;-574;-713
2479117;1;15;1;4586;-94;1814;-947;298;-549;-729
2479127;1;15;1;4586;-363;1395;-1066;772;-201;-895
2479137;1;15;1;4586;-902;1818;-1067;1177;-773;-997
2479147;1;15;1;4586;-1045;2790;-1404;845;-1559;-527
2479157;1;15;1;4586;-943;3371;-1718;179;-1753;270
2479167;1;15;1;4586;-935;3586;-2059;-318;-1461;770
2479177;1;15;1;4586;-1368;3735;-2170;-465;-1175;506
2479187;1;15;1;4586;-1834;4350;-1790;-542;-841;-183
2479197;1;15;1;4586;-2119;4824;-1166;-642;-491;-634
2479207;1;15;1;4587;-1523;5309;-109;-481;-58;-196
2479217;1;15;1;4587;-1099;5447;544;-216;308;432
2479227;1;15;1;4587;-1246;5147;1283;359;527;1314
2479237;1;15;1;4587;-1387;4848;1416;795;293;1728
2479247;1;15;1;4587;-1256;4427;1047;762;-159;1917
2479257;1;15;1;4587;-1077;3983;268;628;-383;1916
2479267;1;15;1;4587;-892;3632;-474;414;-362;1911
2479277;1;15;1;4587;-870;3461;-1054;153;42;1816
2479287;1;15;1;4587;-722;3500;-1417;-156;630;1687
2479297;1;15;1;4587;-692;3568;-1646;-446;1243;1434
2479307;1;15;1;4587;-995;3736;-1685;-807;1783;876
2479317;1;15;1;4587;-1229;4019;-1416;-1321;2382;74
2479327;1;15;1;4587;-1070;4328;-602;-1675;3012;-8
2479337;1;15;1;4587;-736;4268;265;-1546;3365;497
2479347;1;15;1;4587;-556;4051;875;-1072;3772;948
2479357;1;15;1;4587;-640;3935;1041;-479;3818;1239
2479367;1;15;1;4587;-740;3890;1062;148;3593;1163
2479377;1;15;1;4587;-779;3951;814;465;3260;1006
2479387;1;15;1;4587;-973;3924;375;560;2896;1010
2479397;1;15;1;4587;-1102;3920;-24;484;2721;938
2479407;1;15;1;4587;-991;3894;-280;243;2783;931
2479417;1;15;1;4587;-846;3696;-459;-36;2945;1033
2479427;1;15;1;4587;-750;3389;-686;-243;2993;1074
2479437;1;15;1;4587;-656;3305;-824;-465;2968;1036
2479447;1;15;1;4587;-675;3388;-886;-699;2913;787
2479457;1;15;1;4587;-470;3729;-613;-863;2825;759
2479467;1;15;1;4587;-309;3720;-238;-1104;2771;1020
2479477;1;15;1;4587;-244;3459;117;-1306;2723;1221
2479487;1;15;1;4587;-168;3271;235;-1368;2628;1244
2479497;1;15;1;4587;-105;3183;101;-1384;2662;1142
2479507;1;15;1;4587;-96;3238;-6;-1364;2760;995
2479517;1;15;1;4587;-191;3456;-257;-1275;3047;704
2479527;1;15;1;4587;-336;3594;-573;-1154;3329;744
2479537;1;15;1;4587;-429;3684;-762;-1038;3694;798
2479547;1;15;1;4587;-508;3674;-917;-931;4001;962
2479557;1;15;1;4587;-464;3706;-961;-860;4193;1100
2479567;1;15;1;4587;-341;3714;-918;-935;4309;1202
2479577;1;15;1;4587;-150;3731;-743;-1092;4473;1185
2479587;1;15;1;4587;29;3818;-495;-1211;4685;1337
2479597;1;15;1;4587;92;3904;-254;-1261;4770;1456
2479607;1;15;1;4587;349;4010;-30;-1224;4873;1768
2479617;1;15;1;4587;587;3999;77;-1005;5001;2462
2479627;1;15;1;4587;772;3908;130;-713;5343;3193
2479637;1;15;1;4587;715;3453;107;-357;5832;3740
2479647;1;15;1;4587;244;2704;322;111;5975;3400
2479657;1;15;1;4587;-464;2082;393;542;5855;2179
2479667;1;15;1;4587;-775;2242;416;385;5899;532
2479677;1;15;1;4587;-1513;3216;41;-688;6076;-1623
2479687;1;15;1;4587;-2957;4492;-791;-2703;6328;-3379
2479697;1;15;1;4587;-3836;4963;-1455;-4394;5812;-3964
2479707;1;15;1;4588;-2447;5975;-632;-5013;5386;-2177
2479717;1;15;1;4588;-2328;5400;715;-4668;4815;500
2479727;1;15;1;4588;-2788;4876;2145;-3337;3497;1287
2479737;1;15;1;4588;-3008;4914;3099;-2081;1826;958
2479747;1;15;1;4588;-2657;5034;3466;-1555;981;536
2479757;1;15;1;4588;-1959;5860;2599;-1525;-57;-542
2479767;1;15;1;4588;-1863;6130;1103;-1792;-859;-368
2479777;1;15;1;4588;-1500;5788;10;-1757;-1771;773
2479787;1;15;1;4588;-886;5164;-465;-1283;-1978;1730
2479797;1;15;1;4588;99;4869;-706;-1075;-1419;2138
2479807;1;15;1;4588;1125;4612;-1159;-1075;-576;2038
2479817;1;15;1;4588;1222;4428;-1879;-1022;440;1550
2479827;1;15;1;4588;595;4258;-2144;-896;1432;711
2479837;1;15;1;4588;-157;4050;-1592;-713;2167;-346
2479847;1;15;1;4588;-703;3950;-407;-653;2475;-1331
2479857;1;15;1;4588;-1066;4079;684;-840;2419;-2016
2479867;1;15;1;4588;-1059;4128;1572;-1094;1873;-2145
2479877;1;15;1;4588;-715;4273;2346;-1313;976;-1686
2479887;1;15;1;4588;-19;4404;2659;-1448;275;-649
2479897;1;15;1;4588;463;4353;2376;-1294;-219;336
2479907;1;15;1;4588;690;4360;1501;-906;-337;926
2479917;1;15;1;4588;751;4468;515;-470;-314;1221
2479927;1;15;1;4588;674;4370;-185;47;170;1351
2479937;1;15;1;4588;613;4099;-450;433;844;1348
2479947;1;15;1;4588;794;3773;-379;736;2090;1029
2479957;1;15;1;4588;785;3293;332;1101;2839;814
2479967;1;15;1;4588;994;3134;754;1340;3377;681
2479977;1;15;1;4588;1123;3016;1111;1414;3464;1096
2479987;1;15;1;4588;1288;2808;1045;1489;2951;1679
2479997;1;15;1;4588;1454;3029;789;1601;2812;1721
2480007;1;15;1;4588;1337;3436;443;1463;2208;1789
2480017;1;15;1;4588;1101;3561;114;1099;1959;1778
2480027;1;15;1;4588;772;3127;-152;682;2001;1673
2480037;1;15;1;4588;-72;2490;-523;369;2350;1050
2480047;1;15;1;4588;-1029;2320;-362;157;2075;17
2480057;1;15;1;4588;-1404;2928;-306;2;2713;-1217
2480067;1;15;1;4588;-1365;3740;-230;-257;2458;-1362
2480077;1;15;1;4588;-1067;4224;-289;-538;2904;-1297
2480087;1;15;1;4588;-648;4793;-407;-470;3847;-1160
2480097;1;15;1;4588;-766;5139;-389;104;4404;-1245
2480107;1;15;1;4588;-820;5570;-121;739;4835;-1143
2480117;1;15;1;4588;-1029;5285;251;1148;4904;-911
2480127;1;15;1;4588;-1156;4766;597;1062;4592;-709
2480137;1;15;1;4588;-921;4328;839;525;4202;-432
2480147;1;15;1;4588;-611;3849;990;162;3873;-298
2480157;1;15;1;4588;-473;3772;1135;153;3554;-317
2480167;1;15;1;4588;-181;3921;984;413;2709;-78
2480177;1;15;1;4588;-223;3945;622;827;2397;-48
2480187;1;15;1;4588;-314;4069;25;1064;2461;-430
2480197;1;15;1;4588;-427;4183;-678;989;2551;-947
2480207;1;15;1;4589;-368;4238;-1303;725;2800;-1355
2480217;1;15;1;4589;-193;4340;-1566;449;3193;-1552
2480227;1;15;1;4589;-239;4372;-1297;287;3548;-1640
2480237;1;15;1;4589;-379;4354;-752;337;3776;-1783
2480247;1;15;1;4589;-574;4319;-183;549;3762;-1941
2480257;1;15;1;4589;-682;4296;302;754;3628;-2084
2480267;1;15;1;4589;-664;4306;546;932;3343;-2154
2480277;1;15;1;4589;-583;4230;539;1050;3092;-2040
2480287;1;15;1;4589;-520;4013;355;1187;3127;-2124
2480297;1;15;1;4589;-635;3856;123;1128;3179;-2292
2480307;1;15;1;4589;-844;3827;81;885;2434;-2163
2480317;1;15;1;4589;-933;3867;254;607;1702;-1879
