timestamp;subject_id;activity;label;seq;ax;ay;az;gx;gy;gz
2539847;1;16;1;4708;677;3911;-102;1649;859;-913
2539857;1;16;1;4708;186;3764;152;2124;668;-1179
2539867;1;16;1;4708;-111;3946;416;2228;54;-1319
2539877;1;16;1;4708;81;4219;550;2025;-568;-1058
2539887;1;16;1;4708;336;4349;529;1781;-1297;-819
2539897;1;16;1;4708;289;4272;296;1705;-2044;-841
2539907;1;16;1;4708;226;4143;13;1825;-2765;-986
2539917;1;16;1;4708;296;3885;-514;2004;-2952;-1206
2539927;1;16;1;4708;133;3547;-959;2357;-2976;-1510
2539937;1;16;1;4708;15;3552;-1127;2745;-3212;-1799
2539947;1;16;1;4708;-4;3915;-876;2981;-3455;-1707
2539957;1;16;1;4708;180;4456;-264;3014;-3700;-1231
2539967;1;16;1;4708;441;4431;416;2862;-3883;-788
2539977;1;16;1;4708;367;3992;584;2733;-4193;-916
2539987;1;16;1;4708;178;3725;450;2631;-4700;-1363
2539997;1;16;1;4708;258;3934;157;2486;-5112;-1529
2540007;1;16;1;4708;371;4182;-153;2402;-5388;-1355
2540017;1;16;1;4708;236;4281;-370;2442;-5542;-1263
2540027;1;16;1;4708;-67;4243;-361;2514;-5554;-1520
2540037;1;16;1;4708;-209;4169;-277;2464;-5490;-1893
2540047;1;16;1;4708;-119;4199;-177;2218;-5279;-2104
2540057;1;16;1;4708;82;4239;-188;2058;-5370;-1931
2540067;1;16;1;4708;242;4365;-299;1913;-5421;-1616
2540077;1;16;1;4708;323;4379;-535;1733;-5309;-1304
2540087;1;16;1;4708;144;4271;-783;1520;-5071;-1293
2540097;1;16;1;4708;-33;4178;-947;1266;-4806;-1515
2540107;1;16;1;4708;-28;4131;-886;990;-4513;-1715
2540117;1;16;1;4708;274;4239;-708;839;-4328;-1617
2540127;1;16;1;4708;608;4243;-632;892;-4247;-1370
2540137;1;16;1;4708;450;4216;-462;1155;-4146;-1360
2540147;1;16;1;4708;185;4235;-234;1405;-4141;-1517
2540157;1;16;1;4708;34;4216;27;1482;-4288;-1645
2540167;1;16;1;4708;-44;4024;161;1376;-4590;-1673
2540177;1;16;1;4708;99;3939;111;1170;-4858;-1532
2540187;1;16;1;4708;310;3932;-36;899;-5274;-1175
2540197;1;16;1;4708;386;3863;-338;763;-5462;-793
2540207;1;16;1;4709;519;3795;-657;925;-5156;-758
2540217;1;16;1;4709;606;3892;-999;1098;-4500;-1124
2540227;1;16;1;4709;382;3992;-1332;1048;-4223;-1855
2540237;1;16;1;4709;-98;3958;-1572;796;-4249;-2224
2540247;1;16;1;4709;-257;4068;-1339;602;-4177;-2179
2540257;1;16;1;4709;-43;4121;-805;506;-3969;-1750
2540267;1;16;1;4709;108;4145;-323;609;-3957;-1231
2540277;1;16;1;4709;0;4105;-111;836;-4135;-708
2540287;1;16;1;4709;162;3939;-15;1214;-4223;-407
2540297;1;16;1;4709;639;3990;-86;1618;-4070;-515
2540307;1;16;1;4709;664;3811;-313;1785;-4086;-890
2540317;1;16;1;4709;223;3711;-679;1952;-4454;-1282
2540327;1;16;1;4709;-9;3877;-850;2010;-4613;-1288
2540337;1;16;1;4709;-89;4043;-1005;1968;-4372;-1060
2540347;1;16;1;4709;-264;3966;-1063;2008;-4108;-823
2540357;1;16;1;4709;-379;4040;-899;1991;-4104;-829
2540367;1;16;1;4709;-354;4271;-721;1781;-4157;-634
2540377;1;16;1;4709;-179;4214;-505;1496;-4175;-348
2540387;1;16;1;4709;-41;4159;-292;1395;-4259;-307
2540397;1;16;1;4709;-104;4074;-176;1435;-4420;-417
2540407;1;16;1;4709;-176;4140;-75;1577;-4689;-451
2540417;1;16;1;4709;-205;4333;-33;1658;-4942;-260
2540427;1;16;1;4709;-338;4311;78;1683;-5200;115
2540437;1;16;1;4709;-432;4279;226;1621;-5488;499
2540447;1;16;1;4709;-487;4141;213;1473;-5690;701
2540457;1;16;1;4709;-341;4304;-31;1241;-5884;706
2540467;1;16;1;4709;-283;4408;-298;981;-5960;951
2540477;1;16;1;4709;-471;4308;-646;809;-6077;1302
2540487;1;16;1;4709;-758;4078;-855;868;-6181;1271
2540497;1;16;1;4709;-712;4162;-913;973;-6076;872
2540507;1;16;1;4709;-524;4114;-568;1012;-5737;486
2540517;1;16;1;4709;-300;4062;-188;1010;-5612;342
2540527;1;16;1;4709;-49;4120;74;1000;-5478;369
2540537;1;16;1;4709;13;4186;-18;689;-5686;577
2540547;1;16;1;4709;31;4256;-306;360;-5884;865
2540557;1;16;1;4709;-95;4301;-539;149;-5982;1111
2540567;1;16;1;4709;-72;4403;-616;58;-5732;1324
2540577;1;16;1;4709;-182;4403;-723;35;-5192;1542
2540587;1;16;1;4709;-297;4419;-719;111;-4581;1621
2540597;1;16;1;4709;-305;4365;-671;77;-3855;1648
2540607;1;16;1;4709;-258;4298;-603;-115;-3271;1669
2540617;1;16;1;4709;-73;4237;-775;-337;-2588;1866
2540627;1;16;1;4709;139;4040;-1023;-535;-1933;2266
2540637;1;16;1;4709;97;3963;-1204;-732;-1734;2311
2540647;1;16;1;4709;-136;4033;-1173;-991;-1957;1939
2540657;1;16;1;4709;-453;4151;-974;-1098;-2092;1159
2540667;1;16;1;4709;-584;4322;-631;-1176;-1918;566
2540677;1;16;1;4709;-355;4430;-174;-1171;-1618;536
2540687;1;16;1;4709;-231;4332;-77;-1132;-1299;861
2540697;1;16;1;4709;41;4093;-133;-1109;-889;1295
2540707;1;16;1;4710;160;3978;-517;-1122;-834;1594
2540717;1;16;1;4710;236;4143;-779;-1037;-914;1711
2540727;1;16;1;4710;-232;4306;-937;-1005;-963;1517
2540737;1;16;1;4710;-645;4319;-979;-998;-757;781
2540747;1;16;1;4710;-856;4499;-938;-947;-270;99
2540757;1;16;1;4710;-992;4542;-416;-932;258;-258
2540767;1;16;1;4710;-718;4583;165;-906;818;-160
2540777;1;16;1;4710;-336;4431;357;-891;1593;380
2540787;1;16;1;4710;273;4299;79;-915;1671;1170
2540797;1;16;1;4710;413;4081;3;-1008;2357;1536
2540807;1;16;1;4710;141;3807;-357;-969;984;1807
2540817;1;16;1;4710;-184;3665;-772;-964;679;1210
2540827;1;16;1;4710;-489;3555;-648;-924;734;295
2540837;1;16;1;4710;-469;3582;-389;-1007;830;-464
2540847;1;16;1;4710;-441;3622;-94;-1311;1250;-1048
2540857;1;16;1;4710;-445;3579;194;-1495;1397;-1358
2540867;1;16;1;4710;-129;3605;72;-1613;1018;-1187
2540877;1;16;1;4710;-204;3687;136;-1677;913;-833
2540887;1;16;1;4710;-173;3784;-105;-1511;6;-285
2540897;1;16;1;4710;-388;3998;-159;-1204;-383;-104
2540907;1;16;1;4710;-609;4246;-78;-824;-423;58
2540917;1;16;1;4710;-657;4464;17;-424;-346;219
2540927;1;16;1;4710;-675;4470;56;-228;-386;361
2540937;1;16;1;4710;-624;4193;49;-234;-581;424
2540947;1;16;1;4710;-332;3844;-15;-324;-768;497
2540957;1;16;1;4710;31;3574;-221;-470;-181;399
2540967;1;16;1;4710;42;3482;-249;-452;-943;772
2540977;1;16;1;4710;27;3558;-448;-421;-1235;786
2540987;1;16;1;4710;-150;3661;-538;-299;-1247;471
2540997;1;16;1;4710;-436;3873;-366;-84;-1199;16
2541007;1;16;1;4710;-718;4133;-103;97;-1136;-296
2541017;1;16;1;4710;-970;4299;113;228;-1181;-413
2541027;1;16;1;4710;-875;4369;374;362;-1345;-153
2541037;1;16;1;4710;-712;4338;608;511;-1678;314
2541047;1;16;1;4710;-479;4128;671;552;-905;759
2541057;1;16;1;4710;-480;4042;618;919;-2023;1231
2541067;1;16;1;4710;-520;3965;377;1052;-2621;1204
2541077;1;16;1;4710;-543;3980;11;1049;-3008;853
2541087;1;16;1;4710;-568;3943;-338;1008;-3271;538
2541097;1;16;1;4710;-562;3910;-510;1025;-3501;396
2541107;1;16;1;4710;-644;3970;-539;1064;-3666;387
2541117;1;16;1;4710;-831;4069;-628;1114;-3808;351
2541127;1;16;1;4710;-1012;4266;-634;1159;-3908;196
2541137;1;16;1;4710;-1173;4479;-497;1202;-3945;51
2541147;1;16;1;4710;-1266;4654;-320;1248;-3884;-123
2541157;1;16;1;4710;-1322;4645;4;1239;-3885;-99
2541167;1;16;1;4710;-1278;4447;269;1223;-4052;-98
2541177;1;16;1;4710;-956;4255;413;1318;-4224;-144
2541187;1;16;1;4710;-771;4132;840;1603;-4312;64
2541197;1;16;1;4710;-447;4080;1206;1902;-5037;756
2541207;1;16;1;4711;-372;3642;1235;2201;-5698;1106
2541217;1;16;1;4711;-299;3280;718;2409;-6134;855
2541227;1;16;1;4711;-251;3164;-333;2534;-6254;146
2541237;1;16;1;4711;-723;3347;-1727;2358;-5891;-1146
2541247;1;16;1;4711;-1000;3497;-2210;2124;-5640;-1627
2541257;1;16;1;4711;-1182;3990;-2602;1488;-5014;-1898
2541267;1;16;1;4711;-757;4614;-2522;786;-4324;-1359
2541277;1;16;1;4711;-353;4642;-2154;139;-3473;-383
2541287;1;16;1;4711;1;4338;-1541;-59;-2668;209
2541297;1;16;1;4711;128;3902;-1099;130;-2293;607
2541307;1;16;1;4711;20;3485;-807;362;-1861;668
2541317;1;16;1;4711;-1036;2846;-773;609;-1478;94
2541327;1;16;1;4711;-245;4502;-943;383;-1724;-443
2541337;1;16;1;4711;-594;5562;-1605;-540;-1396;-388
2541347;1;16;1;4711;320;6651;-2005;-1474;-1196;-143
2541357;1;16;1;4711;1248;6217;-2078;-2218;142;974
2541367;1;16;1;4711;1561;4967;-1557;-2072;1368;1213
2541377;1;16;1;4711;1887;3879;-768;-1296;2588;782
2541387;1;16;1;4711;1863;3393;-133;-656;3217;-388
2541397;1;16;1;4711;1338;3444;574;-53;3082;-1496
2541407;1;16;1;4711;739;3844;719;486;3347;-2018
2541417;1;16;1;4711;163;4293;13;832;3884;-2039
2541427;1;16;1;4711;-28;4644;-921;1146;4159;-1675
2541437;1;16;1;4711;-29;4923;-1341;1383;4342;-1311
2541447;1;16;1;4711;457;5149;-1216;1402;4492;-1226
2541457;1;16;1;4711;564;5014;-967;1275;4505;-1524
2541467;1;16;1;4711;458;4847;-643;1108;4315;-2057
2541477;1;16;1;4711;280;4540;-333;845;4066;-2187
2541487;1;16;1;4711;10;4019;-25;519;3586;-2124
2541497;1;16;1;4711;-190;4045;491;268;2773;-2001
2541507;1;16;1;4711;-63;4309;1134;-36;1618;-963
2541517;1;16;1;4711;346;4291;1439;-324;1058;-130
2541527;1;16;1;4711;895;3872;1416;-376;468;106
2541537;1;16;1;4711;1443;3528;417;49;127;-266
2541547;1;16;1;4711;1326;3506;-1216;287;279;-879
2541557;1;16;1;4711;1071;3280;-2407;142;866;-1463
2541567;1;16;1;4711;825;2832;-3118;-278;1497;-2035
2541577;1;16;1;4711;299;2424;-3242;-845;1784;-2718
2541587;1;16;1;4711;-73;2921;-2398;-1539;1556;-3152
2541597;1;16;1;4711;-184;3606;-1067;-2040;1019;-2990
2541607;1;16;1;4711;-290;4179;28;-2128;102;-2371
2541617;1;16;1;4711;-614;4321;890;-1934;-343;-1347
2541627;1;16;1;4711;-316;4259;1390;-1629;-1107;-544
2541637;1;16;1;4711;404;3835;1450;-1256;-1504;-24
2541647;1;16;1;4711;181;3129;480;-480;-1974;-98
2541657;1;16;1;4711;-132;3207;-463;23;-2478;91
2541667;1;16;1;4711;-381;3409;-1032;210;-2625;283
2541677;1;16;1;4711;-435;3706;-1057;121;-3042;381
2541687;1;16;1;4711;-411;3802;-849;36;-2818;479
2541697;1;16;1;4711;-337;3953;-543;163;-2840;675
2541707;1;16;1;4712;-90;4065;-283;263;-2549;975
2541717;1;16;1;4712;185;4209;-255;131;-2297;1157
2541727;1;16;1;4712;171;4270;-458;-168;-2077;1267
2541737;1;16;1;4712;179;4362;-664;-552;-1884;1251
2541747;1;16;1;4712;258;4611;-859;-1003;-1619;842
2541757;1;16;1;4712;254;4737;-1118;-1423;-934;225
2541767;1;16;1;4712;-138;4428;-1343;-1408;-500;-346
2541777;1;16;1;4712;-140;4129;-1464;-1041;412;-826
2541787;1;16;1;4712;-335;3914;-1106;-854;1132;-807
2541797;1;16;1;4712;-564;3771;-629;-745;1183;-314
2541807;1;16;1;4712;-902;3963;78;-755;-46;209
2541817;1;16;1;4712;-472;4462;646;-1004;-1338;1054
2541827;1;16;1;4712;116;4970;863;-1509;-1065;1487
2541837;1;16;1;4712;71;4787;740;-1904;-338;1299
2541847;1;16;1;4712;148;4170;114;-1681;112;618
2541857;1;16;1;4712;181;3468;-921;-1196;432;-404
2541867;1;16;1;4712;45;3021;-1547;-846;770;-940
2541877;1;16;1;4712;-163;2803;-1691;-596;1073;-1038
2541887;1;16;1;4712;-139;2896;-1127;-407;1301;-977
2541897;1;16;1;4712;-236;3172;-367;-318;1026;-996
2541907;1;16;1;4712;-476;3835;131;-322;415;-1511
2541917;1;16;1;4712;-120;4941;645;-565;-48;-1612
2541927;1;16;1;4712;126;5199;356;-727;-95;-1481
2541937;1;16;1;4712;-328;4906;-367;-441;533;-1576
2541947;1;16;1;4712;-564;4777;-1009;-222;550;-876
2541957;1;16;1;4712;-588;4349;-1067;-51;765;178
2541967;1;16;1;4712;-506;3930;-756;20;938;906
2541977;1;16;1;4712;-372;3812;-332;18;842;1069
2541987;1;16;1;4712;-592;3704;-155;-23;548;723
2541997;1;16;1;4712;-629;3912;-87;-6;292;252
2542007;1;16;1;4712;-310;4159;-293;44;174;-154
2542017;1;16;1;4712;-226;3886;-676;194;60;-392
2542027;1;16;1;4712;-333;3921;-844;285;-115;-325
2542037;1;16;1;4712;-343;3802;-580;274;-341;116
2542047;1;16;1;4712;-393;3692;-434;250;-795;274
2542057;1;16;1;4712;-576;3906;-190;128;-987;256
2542067;1;16;1;4712;-201;4531;438;-153;-1123;321
2542077;1;16;1;4712;-101;4994;996;-270;-1219;441
2542087;1;16;1;4712;392;4735;87;-318;-760;-116
2542097;1;16;1;4712;-69;4363;-976;-60;-318;-971
2542107;1;16;1;4712;-184;4146;-1290;-84;17;-785
2542117;1;16;1;4712;-126;3681;-1263;-232;207;-320
2542127;1;16;1;4712;-137;3346;-888;-299;205;-32
2542137;1;16;1;4712;-227;3373;-235;-256;-199;-24
2542147;1;16;1;4712;-422;3569;237;-210;-268;-59
2542157;1;16;1;4712;-489;3825;477;-163;-519;-396
2542167;1;16;1;4712;-423;4139;790;-153;-821;-798
2542177;1;16;1;4712;-277;4365;771;-132;-1112;-1257
2542187;1;16;1;4712;-340;4196;56;106;-1395;-1521
2542197;1;16;1;4712;-145;3943;-650;256;-1294;-1364
2542207;1;16;1;4713;106;3755;-1153;264;-991;-1007
2542217;1;16;1;4713;387;3480;-1287;282;-603;-685
2542227;1;16;1;4713;486;3331;-1035;349;-271;-842
2542237;1;16;1;4713;313;3526;-780;344;-49;-1362
2542247;1;16;1;4713;-41;3904;-599;210;-74;-1846
2542257;1;16;1;4713;-373;4301;-704;-136;-360;-1794
2542267;1;16;1;4713;-875;4232;-863;-470;-621;-1544
2542277;1;16;1;4713;-1057;4303;-912;-811;-994;-1152
2542287;1;16;1;4713;-737;4248;-928;-921;-922;-427
2542297;1;16;1;4713;-293;3951;-1091;-672;-611;-108
2542307;1;16;1;4713;-176;3878;-1188;-239;-247;-249
2542317;1;16;1;4713;-255;3889;-1428;68;99;-289
2542327;1;16;1;4713;-739;4023;-1630;87;344;-256
2542337;1;16;1;4713;-1517;3773;-1723;-55;475;204
2542347;1;16;1;4713;-2033;3774;-1547;-127;216;483
2542357;1;16;1;4713;-1946;4036;-1192;-127;-224;915
2542367;1;16;1;4713;-1259;4213;-998;-202;-483;1562
2542377;1;16;1;4713;-713;3929;-1064;14;-609;1961
2542387;1;16;1;4713;-496;3623;-1277;354;-562;2043
2542397;1;16;1;4713;-465;3513;-1476;512;-355;1853
2542407;1;16;1;4713;-802;3497;-1753;539;-227;1329
2542417;1;16;1;4713;-1424;3753;-1831;449;-272;954
2542427;1;16;1;4713;-1755;4176;-1473;327;-522;1146
2542437;1;16;1;4713;-1849;4423;-939;377;-931;1733
2542447;1;16;1;4713;-1602;4421;-593;581;-1329;2410
2542457;1;16;1;4713;-1237;4319;-636;876;-1599;2761
2542467;1;16;1;4713;-801;4391;-1069;1101;-1974;2758
2542477;1;16;1;4713;-506;4140;-1422;1151;-1629;3177
2542487;1;16;1;4713;-796;3671;-1650;1197;-1305;3288
2542497;1;16;1;4713;-1277;3584;-1589;1148;-1204;2980
2542507;1;16;1;4713;-1324;3835;-1437;994;-1191;2793
2542517;1;16;1;4713;-898;4029;-1426;862;-1130;2939
2542527;1;16;1;4713;-57;4250;-1559;728;-934;2950
2542537;1;16;1;4713;539;4517;-1755;694;-518;2911
2542547;1;16;1;4713;741;4375;-1645;724;207;3141
2542557;1;16;1;4713;403;3913;-1325;815;880;3048
2542567;1;16;1;4713;-187;3761;-1031;774;1198;2588
2542577;1;16;1;4713;-735;3935;-779;435;1050;1806
2542587;1;16;1;4713;-1255;4362;-504;213;525;942
2542597;1;16;1;4713;-1506;4649;-377;167;-62;488
2542607;1;16;1;4713;-1216;4768;-659;293;-284;339
2542617;1;16;1;4713;-769;5219;-1160;348;-173;377
2542627;1;16;1;4713;-30;5499;-1484;50;328;1283
2542637;1;16;1;4713;297;4776;-1067;32;1163;2602
2542647;1;16;1;4713;646;4226;-820;98;1786;2910
2542657;1;16;1;4713;716;3852;-634;-25;1797;2585
2542667;1;16;1;4713;318;3511;-451;-131;1243;1630
2542677;1;16;1;4713;-841;3486;-528;156;604;201
2542687;1;16;1;4713;-1180;3816;-841;448;-220;-745
2542697;1;16;1;4713;-1020;4472;-1251;524;204;-1390
2542707;1;16;1;4714;-503;5266;-1829;309;763;-870
2542717;1;16;1;4714;258;5090;-1984;62;1694;509
2542727;1;16;1;4714;620;4184;-1672;32;3371;1555
2542737;1;16;1;4714;740;3881;-995;-185;3721;1408
2542747;1;16;1;4714;620;3587;-1062;-425;3241;795
2542757;1;16;1;4714;-103;3417;-1134;-306;2433;-528
2542767;1;16;1;4714;-362;3551;-1154;-24;2069;-1370
2542777;1;16;1;4714;-682;3957;-1209;262;2154;-1840
2542787;1;16;1;4714;-1009;4498;-1263;278;2376;-1679
2542797;1;16;1;4714;-935;4781;-1069;-29;2710;-571
2542807;1;16;1;4714;-764;4756;-354;-487;2693;819
2542817;1;16;1;4714;-177;4483;-29;-908;1878;1754
2542827;1;16;1;4714;830;4153;-370;-1277;1226;1682
2542837;1;16;1;4714;807;3177;-954;-1028;1143;684
