timestamp;subject_id;activity;label;seq;ax;ay;az;gx;gy;gz
444362;1;1;0;396;-321;3866;-1296;-169;-51;-121
444372;1;1;0;396;-327;3878;-1297;-165;-64;-122
444382;1;1;0;396;-323;3867;-1313;-175;-73;-129
444392;1;1;0;396;-319;3874;-1309;-168;-73;-132
444402;1;1;0;396;-318;3883;-1318;-164;-57;-133
444412;1;1;0;396;-320;3878;-1317;-172;-33;-119
444422;1;1;0;396;-329;3864;-1308;-163;-19;-102
444432;1;1;0;396;-329;3875;-1289;-156;-34;-93
444442;1;1;0;396;-320;3877;-1267;-145;-61;-77
444452;1;1;0;396;-313;3873;-1271;-132;-91;-79
444462;1;1;0;396;-310;3875;-1287;-128;-115;-75
444472;1;1;0;396;-304;3887;-1281;-137;-124;-68
444482;1;1;0;396;-304;3884;-1294;-134;-133;-66
444492;1;1;0;396;-298;3878;-1295;-133;-130;-51
444502;1;1;0;396;-308;3881;-1342;-150;-115;-37
444512;1;1;0;396;-298;3871;-1318;-153;-94;-27
444522;1;1;0;396;-278;3869;-1331;-144;-73;-30
444532;1;1;0;396;-301;3868;-1336;-149;-50;-44
444542;1;1;0;396;-296;3864;-1333;-138;-34;-54
444552;1;1;0;396;-303;3874;-1311;-129;-16;-67
444562;1;1;0;396;-297;3863;-1293;-121;-9;-61
444572;1;1;0;396;-301;3876;-1288;-133;-5;-69
444582;1;1;0;396;-297;3877;-1295;-133;-21;-77
444592;1;1;0;396;-312;3886;-1280;-135;-43;-80
444602;1;1;0;396;-302;3887;-1309;-141;-54;-82
444612;1;1;0;396;-301;3876;-1296;-144;-66;-75
444622;1;1;0;396;-310;3887;-1308;-154;-68;-57
444632;1;1;0;396;-310;3885;-1306;-144;-76;-44
444642;1;1;0;396;-298;3880;-1272;-148;-82;-31
444652;1;1;0;396;-301;3877;-1288;-133;-93;-38
444662;1;1;0;396;-294;3862;-1300;-135;-107;-38
444672;1;1;0;396;-297;3848;-1284;-148;-114;-56
444682;1;1;0;396;-310;3868;-1298;-149;-122;-69
444692;1;1;0;396;-311;3873;-1310;-147;-128;-79
444702;1;1;0;396;-318;3888;-1308;-154;-112;-81
444712;1;1;0;396;-320;3890;-1323;-157;-103;-73
444722;1;1;0;396;-308;3890;-1314;-161;-97;-68
444732;1;1;0;396;-315;3885;-1303;-158;-94;-63
444742;1;1;0;396;-304;3872;-1313;-155;-103;-60
444752;1;1;0;396;-312;3877;-1301;-156;-100;-55
444762;1;1;0;396;-302;3879;-1283;-150;-104;-58
444772;1;1;0;396;-312;3873;-1300;-142;-114;-73
444782;1;1;0;396;-320;3871;-1290;-149;-121;-77
444792;1;1;0;396;-307;3881;-1305;-155;-128;-72
444802;1;1;0;396;-312;3898;-1292;-155;-133;-51
444812;1;1;0;396;-312;3904;-1293;-145;-132;-35
444822;1;1;0;396;-292;3886;-1295;-139;-142;-26
444832;1;1;0;396;-286;3881;-1316;-146;-138;-27
444842;1;1;0;396;-289;3872;-1301;-140;-139;-36
444852;1;1;0;396;-283;3862;-1314;-145;-133;-56
444862;1;1;0;397;-295;3871;-1313;-138;-141;-59
444872;1;1;0;397;-312;3874;-1313;-144;-146;-53
444882;1;1;0;397;-302;3882;-1299;-153;-144;-52
444892;1;1;0;397;-311;3879;-1302;-150;-149;-52
444902;1;1;0;397;-320;3884;-1303;-146;-148;-52
444912;1;1;0;397;-298;3892;-1295;-137;-150;-46
444922;1;1;0;397;-303;3896;-1300;-134;-140;-42
444932;1;1;0;397;-316;3891;-1309;-139;-119;-25
444942;1;1;0;397;-310;3874;-1296;-140;-101;-12
444952;1;1;0;397;-308;3862;-1315;-138;-103;-16
444962;1;1;0;397;-308;3868;-1291;-145;-102;-25
444972;1;1;0;397;-300;3864;-1283;-143;-108;-42
444982;1;1;0;397;-302;3873;-1302;-152;-113;-39
444992;1;1;0;397;-295;3867;-1306;-147;-126;-38
445002;1;1;0;397;-298;3889;-1292;-148;-134;-37
445012;1;1;0;397;-296;3872;-1295;-150;-141;-47
445022;1;1;0;397;-285;3900;-1297;-165;-146;-46
445032;1;1;0;397;-287;3885;-1322;-156;-151;-33
445042;1;1;0;397;-291;3884;-1300;-162;-161;-29
445052;1;1;0;397;-284;3877;-1299;-161;-161;-30
445062;1;1;0;397;-293;3872;-1294;-162;-162;-44
445072;1;1;0;397;-286;3859;-1306;-151;-166;-57
445082;1;1;0;397;-299;3858;-1298;-158;-151;-62
445092;1;1;0;397;-301;3870;-1324;-150;-123;-46
445102;1;1;0;397;-290;3882;-1305;-152;-98;-31
445112;1;1;0;397;-301;3892;-1312;-139;-100;-25
445122;1;1;0;397;-286;3881;-1308;-140;-98;-29
445132;1;1;0;397;-304;3886;-1317;-147;-98;-35
445142;1;1;0;397;-298;3892;-1313;-139;-95;-39
445152;1;1;0;397;-297;3897;-1307;-147;-82;-43
445162;1;1;0;397;-294;3879;-1291;-150;-88;-37
445172;1;1;0;397;-289;3866;-1311;-148;-89;-35
445182;1;1;0;397;-288;3869;-1278;-142;-90;-42
445192;1;1;0;397;-282;3871;-1273;-133;-96;-46
445202;1;1;0;397;-287;3874;-1322;-144;-97;-56
445212;1;1;0;397;-287;3884;-1303;-145;-95;-53
445222;1;1;0;397;-295;3886;-1294;-146;-95;-43
445232;1;1;0;397;-308;3874;-1281;-151;-85;-40
445242;1;1;0;397;-312;3882;-1286;-155;-80;-44
445252;1;1;0;397;-308;3891;-1290;-146;-87;-50
445262;1;1;0;397;-315;3880;-1281;-153;-95;-53
445272;1;1;0;397;-300;3868;-1287;-143;-98;-60
445282;1;1;0;397;-296;3895;-1287;-144;-107;-63
445292;1;1;0;397;-291;3886;-1302;-152;-100;-50
445302;1;1;0;397;-291;3887;-1296;-150;-90;-31
445312;1;1;0;397;-279;3881;-1312;-151;-79;-29
445322;1;1;0;397;-289;3864;-1289;-149;-82;-37
445332;1;1;0;397;-272;3870;-1300;-144;-94;-53
445342;1;1;0;397;-268;3859;-1298;-154;-97;-64
445352;1;1;0;397;-284;3864;-1297;-156;-103;-78
445362;1;1;0;398;-291;3905;-1290;-150;-104;-81
445372;1;1;0;398;-296;3890;-1307;-156;-104;-71
445382;1;1;0;398;-283;3897;-1289;-145;-103;-58
445392;1;1;0;398;-296;3892;-1290;-141;-101;-45
445402;1;1;0;398;-289;3898;-1281;-140;-101;-36
445412;1;1;0;398;-294;3885;-1285;-147;-98;-38
445422;1;1;0;398;-279;3880;-1302;-144;-97;-29
445432;1;1;0;398;-283;3865;-1305;-150;-95;-39
445442;1;1;0;398;-295;3858;-1298;-150;-102;-50
445452;1;1;0;398;-296;3875;-1287;-168;-100;-64
445462;1;1;0;398;-297;3874;-1279;-164;-111;-64
445472;1;1;0;398;-300;3883;-1292;-157;-113;-60
445482;1;1;0;398;-292;3895;-1298;-150;-111;-61
445492;1;1;0;398;-287;3891;-1294;-147;-104;-58
445502;1;1;0;398;-289;3883;-1291;-150;-107;-53
445512;1;1;0;398;-294;3886;-1304;-151;-108;-53
445522;1;1;0;398;-289;3882;-1282;-149;-112;-48
445532;1;1;0;398;-287;3876;-1297;-155;-96;-49
445542;1;1;0;398;-281;3876;-1293;-137;-98;-52
445552;1;1;0;398;-277;3866;-1293;-132;-95;-56
445562;1;1;0;398;-286;3878;-1295;-136;-90;-64
445572;1;1;0;398;-285;3863;-1310;-145;-92;-74
445582;1;1;0;398;-283;3884;-1283;-147;-104;-84
445592;1;1;0;398;-282;3894;-1298;-140;-104;-76
445602;1;1;0;398;-288;3900;-1288;-139;-107;-69
445612;1;1;0;398;-283;3898;-1315;-141;-97;-66
445622;1;1;0;398;-294;3876;-1294;-136;-89;-69
445632;1;1;0;398;-290;3884;-1292;-136;-76;-72
445642;1;1;0;398;-280;3865;-1299;-142;-70;-70
445652;1;1;0;398;-294;3875;-1301;-135;-61;-65
445662;1;1;0;398;-297;3869;-1314;-141;-54;-60
445672;1;1;0;398;-285;3875;-1300;-139;-55;-66
445682;1;1;0;398;-291;3877;-1299;-143;-55;-63
445692;1;1;0;398;-294;3899;-1309;-145;-58;-54
445702;1;1;0;398;-281;3905;-1318;-138;-55;-49
445712;1;1;0;398;-291;3880;-1303;-129;-48;-56
445722;1;1;0;398;-306;3870;-1293;-139;-45;-72
445732;1;1;0;398;-282;3868;-1291;-135;-42;-92
445742;1;1;0;398;-285;3867;-1286;-147;-48;-99
445752;1;1;0;398;-289;3873;-1277;-154;-62;-103
445762;1;1;0;398;-272;3888;-1319;-156;-72;-103
445772;1;1;0;398;-297;3891;-1303;-156;-83;-96
445782;1;1;0;398;-287;3888;-1319;-158;-80;-90
445792;1;1;0;398;-293;3878;-1277;-149;-75;-83
445802;1;1;0;398;-303;3877;-1283;-153;-54;-77
445812;1;1;0;398;-301;3877;-1299;-148;-43;-76
445822;1;1;0;398;-295;3867;-1299;-145;-54;-87
445832;1;1;0;398;-312;3861;-1285;-151;-64;-99
445842;1;1;0;398;-314;3874;-1286;-153;-71;-108
445852;1;1;0;398;-302;3870;-1291;-156;-63;-111
445862;1;1;0;399;-304;3887;-1282;-147;-61;-116
445872;1;1;0;399;-307;3877;-1295;-146;-61;-112
445882;1;1;0;399;-286;3892;-1295;-164;-55;-101
445892;1;1;0;399;-289;3859;-1300;-166;-56;-103
445902;1;1;0;399;-301;3857;-1298;-161;-58;-110
445912;1;1;0;399;-293;3873;-1301;-150;-62;-110
445922;1;1;0;399;-291;3877;-1294;-143;-56;-112
445932;1;1;0;399;-301;3902;-1306;-138;-55;-110
445942;1;1;0;399;-301;3896;-1289;-134;-49;-103
445952;1;1;0;399;-296;3876;-1266;-138;-36;-92
445962;1;1;0;399;-298;3884;-1292;-128;-30;-90
445972;1;1;0;399;-282;3883;-1286;-137;-27;-84
445982;1;1;0;399;-273;3887;-1302;-145;-34;-84
445992;1;1;0;399;-294;3888;-1304;-153;-47;-81
446002;1;1;0;399;-287;3885;-1326;-155;-55;-74
446012;1;1;0;399;-297;3875;-1299;-147;-63;-77
446022;1;1;0;399;-311;3873;-1286;-144;-70;-84
446032;1;1;0;399;-293;3879;-1306;-145;-75;-80
446042;1;1;0;399;-296;3870;-1289;-140;-82;-75
446052;1;1;0;399;-302;3883;-1302;-147;-82;-74
446062;1;1;0;399;-279;3882;-1293;-145;-77;-75
446072;1;1;0;399;-284;3884;-1291;-142;-75;-78
446082;1;1;0;399;-289;3870;-1315;-151;-68;-85
446092;1;1;0;399;-286;3868;-1308;-150;-67;-91
446102;1;1;0;399;-315;3873;-1313;-156;-69;-104
446112;1;1;0;399;-311;3887;-1292;-152;-76;-102
446122;1;1;0;399;-309;3893;-1301;-146;-69;-100
446132;1;1;0;399;-305;3886;-1306;-150;-68;-88
446142;1;1;0;399;-306;3882;-1304;-141;-73;-87
446152;1;1;0;399;-303;3888;-1292;-143;-78;-80
446162;1;1;0;399;-310;3893;-1287;-148;-82;-80
446172;1;1;0;399;-307;3892;-1308;-146;-86;-74
446182;1;1;0;399;-303;3881;-1311;-145;-83;-70
446192;1;1;0;399;-305;3875;-1298;-139;-84;-74
446202;1;1;0;399;-310;3883;-1295;-141;-85;-71
446212;1;1;0;399;-285;3868;-1299;-138;-86;-74
446222;1;1;0;399;-283;3865;-1310;-139;-88;-73
446232;1;1;0;399;-291;3858;-1296;-139;-93;-73
446242;1;1;0;399;-291;3873;-1308;-134;-97;-70
446252;1;1;0;399;-291;3879;-1326;-143;-94;-81
446262;1;1;0;399;-288;3884;-1338;-155;-81;-89
446272;1;1;0;399;-293;3883;-1332;-152;-73;-101
446282;1;1;0;399;-295;3867;-1313;-155;-65;-98
446292;1;1;0;399;-317;3879;-1313;-155;-61;-105
446302;1;1;0;399;-308;3872;-1295;-147;-67;-104
446312;1;1;0;399;-297;3878;-1276;-139;-76;-97
446322;1;1;0;399;-312;3898;-1288;-143;-82;-90
446332;1;1;0;399;-309;3882;-1299;-140;-86;-81
446342;1;1;0;399;-313;3887;-1276;-140;-83;-61
446352;1;1;0;399;-304;3886;-1299;-133;-79;-42
446362;1;1;0;400;-306;3889;-1306;-139;-71;-37
446372;1;1;0;400;-291;3883;-1308;-139;-76;-39
446382;1;1;0;400;-282;3861;-1313;-138;-83;-53
446392;1;1;0;400;-289;3850;-1327;-147;-87;-68
446402;1;1;0;400;-296;3871;-1300;-149;-98;-89
446412;1;1;0;400;-317;3861;-1315;-146;-100;-103
446422;1;1;0;400;-308;3868;-1306;-143;-106;-104
446432;1;1;0;400;-297;3889;-1310;-157;-93;-101
446442;1;1;0;400;-296;3875;-1290;-149;-84;-91
446452;1;1;0;400;-297;3892;-1294;-155;-91;-89
446462;1;1;0;400;-300;3885;-1308;-150;-105;-91
446472;1;1;0;400;-303;3873;-1301;-154;-114;-92
446482;1;1;0;400;-299;3867;-1310;-152;-110;-80
446492;1;1;0;400;-308;3878;-1289;-149;-93;-82
446502;1;1;0;400;-310;3858;-1310;-160;-80;-79
446512;1;1;0;400;-313;3854;-1299;-157;-66;-81
446522;1;1;0;400;-299;3883;-1304;-138;-66;-90
446532;1;1;0;400;-314;3871;-1316;-147;-72;-103
446542;1;1;0;400;-312;3890;-1285;-144;-76;-98
446552;1;1;0;400;-316;3915;-1311;-149;-65;-89
446562;1;1;0;400;-318;3907;-1308;-136;-66;-69
446572;1;1;0;400;-296;3899;-1287;-147;-50;-43
446582;1;1;0;400;-286;3884;-1290;-127;-34;-37
446592;1;1;0;400;-281;3856;-1296;-119;-38;-46
446602;1;1;0;400;-285;3854;-1317;-134;-47;-68
446612;1;1;0;400;-282;3849;-1320;-150;-65;-80
446622;1;1;0;400;-299;3856;-1318;-157;-67;-81
446632;1;1;0;400;-297;3865;-1303;-154;-65;-87
446642;1;1;0;400;-301;3870;-1289;-145;-69;-95
446652;1;1;0;400;-314;3888;-1287;-148;-73;-94
446662;1;1;0;400;-322;3886;-1287;-143;-75;-93
446672;1;1;0;400;-311;3899;-1276;-141;-78;-87
446682;1;1;0;400;-308;3895;-1291;-150;-77;-80
446692;1;1;0;400;-312;3882;-1299;-137;-80;-70
446702;1;1;0;400;-302;3888;-1311;-144;-78;-63
446712;1;1;0;400;-295;3871;-1299;-152;-78;-61
446722;1;1;0;400;-294;3898;-1310;-147;-84;-55
446732;1;1;0;400;-281;3883;-1316;-155;-73;-54
446742;1;1;0;400;-288;3878;-1323;-151;-79;-47
446752;1;1;0;400;-286;3868;-1317;-149;-80;-56
446762;1;1;0;400;-286;3863;-1299;-150;-79;-68
446772;1;1;0;400;-288;3861;-1287;-139;-87;-79
446782;1;1;0;400;-297;3891;-1278;-156;-95;-83
446792;1;1;0;400;-286;3901;-1265;-152;-98;-77
446802;1;1;0;400;-303;3889;-1300;-152;-91;-73
446812;1;1;0;400;-306;3867;-1309;-161;-97;-73
446822;1;1;0;400;-307;3867;-1311;-154;-95;-73
446832;1;1;0;400;-316;3878;-1322;-166;-87;-83
446842;1;1;0;400;-312;3872;-1311;-158;-83;-84
446852;1;1;0;400;-311;3892;-1300;-151;-75;-75
446862;1;1;0;401;-321;3892;-1290;-137;-75;-63
446872;1;1;0;401;-304;3884;-1292;-133;-81;-51
446882;1;1;0;401;-297;3883;-1295;-135;-75;-46
446892;1;1;0;401;-300;3878;-1300;-138;-72;-42
446902;1;1;0;401;-304;3882;-1279;-137;-80;-55
446912;1;1;0;401;-290;3870;-1314;-142;-82;-68
446922;1;1;0;401;-305;3874;-1306;-155;-78;-84
446932;1;1;0;401;-302;3854;-1298;-156;-72;-82
446942;1;1;0;401;-296;3877;-1300;-159;-71;-82
446952;1;1;0;401;-301;3869;-1282;-156;-71;-81
446962;1;1;0;401;-299;3883;-1292;-152;-71;-77
446972;1;1;0;401;-296;3890;-1287;-140;-65;-69
446982;1;1;0;401;-305;3882;-1305;-134;-71;-68
446992;1;1;0;401;-306;3885;-1290;-142;-74;-68
447002;1;1;0;401;-301;3866;-1298;-140;-75;-67
447012;1;1;0;401;-295;3872;-1315;-155;-73;-77
447022;1;1;0;401;-291;3877;-1298;-148;-84;-89
447032;1;1;0;401;-302;3870;-1298;-147;-91;-98
447042;1;1;0;401;-316;3886;-1278;-150;-95;-95
447052;1;1;0;401;-322;3882;-1319;-143;-93;-86
447062;1;1;0;401;-301;3894;-1317;-152;-92;-72
447072;1;1;0;401;-302;3890;-1321;-146;-89;-58
447082;1;1;0;401;-308;3871;-1324;-143;-77;-45
447092;1;1;0;401;-311;3868;-1323;-139;-75;-51
447102;1;1;0;401;-308;3864;-1298;-140;-80;-59
447112;1;1;0;401;-303;3886;-1304;-148;-86;-72
447122;1;1;0;401;-291;3886;-1294;-140;-80;-73
447132;1;1;0;401;-323;3888;-1295;-141;-74;-80
447142;1;1;0;401;-317;3890;-1285;-135;-74;-84
447152;1;1;0;401;-290;3892;-1293;-124;-75;-70
447162;1;1;0;401;-280;3890;-1303;-124;-76;-46
447172;1;1;0;401;-292;3870;-1320;-131;-92;-40
447182;1;1;0;401;-268;3865;-1307;-130;-110;-50
447192;1;1;0;401;-286;3861;-1292;-131;-128;-66
447202;1;1;0;401;-291;3842;-1314;-135;-130;-79
447212;1;1;0;401;-290;3852;-1324;-148;-121;-85
447222;1;1;0;401;-314;3870;-1328;-146;-108;-86
447232;1;1;0;401;-305;3876;-1322;-147;-97;-68
447242;1;1;0;401;-294;3881;-1319;-148;-99;-64
447252;1;1;0;401;-290;3880;-1311;-150;-104;-70
447262;1;1;0;401;-289;3891;-1318;-149;-108;-75
447272;1;1;0;401;-290;3880;-1305;-152;-93;-80
447282;1;1;0;401;-293;3883;-1310;-140;-74;-74
447292;1;1;0;401;-294;3878;-1291;-149;-57;-62
447302;1;1;0;401;-296;3881;-1325;-144;-51;-66
447312;1;1;0;401;-280;3871;-1298;-144;-59;-74
447322;1;1;0;401;-286;3864;-1288;-147;-68;-89
447332;1;1;0;401;-281;3881;-1295;-143;-88;-88
447342;1;1;0;401;-293;3874;-1298;-139;-98;-84
447352;1;1;0;401;-301;3877;-1313;-143;-93;-82
447362;1;1;0;402;-294;3878;-1312;-143;-92;-78
447372;1;1;0;402;-300;3877;-1308;-142;-85;-76
447382;1;1;0;402;-300;3884;-1325;-150;-75;-75
447392;1;1;0;402;-303;3884;-1333;-153;-69;-81
447402;1;1;0;402;-297;3882;-1318;-154;-71;-84
447412;1;1;0;402;-308;3871;-1304;-142;-73;-87
447422;1;1;0;402;-305;3873;-1299;-137;-74;-73
447432;1;1;0;402;-312;3882;-1291;-139;-84;-66
447442;1;1;0;402;-301;3874;-1288;-134;-82;-63
447452;1;1;0;402;-286;3894;-1295;-133;-90;-56
447462;1;1;0;402;-293;3879;-1288;-138;-92;-53
447472;1;1;0;402;-301;3881;-1314;-129;-99;-40
447482;1;1;0;402;-296;3879;-1314;-131;-109;-35
447492;1;1;0;402;-297;3888;-1306;-129;-103;-24
447502;1;1;0;402;-296;3868;-1301;-132;-100;-22
447512;1;1;0;402;-279;3876;-1289;-128;-107;-27
447522;1;1;0;402;-279;3873;-1303;-138;-113;-35
447532;1;1;0;402;-281;3861;-1314;-142;-122;-53
447542;1;1;0;402;-278;3860;-1301;-154;-123;-58
447552;1;1;0;402;-291;3875;-1324;-168;-121;-66
447562;1;1;0;402;-296;3877;-1318;-156;-122;-76
447572;1;1;0;402;-293;3881;-1286;-171;-108;-84
447582;1;1;0;402;-292;3880;-1302;-164;-97;-79
447592;1;1;0;402;-293;3871;-1299;-167;-91;-78
447602;1;1;0;402;-307;3878;-1290;-167;-104;-73
447612;1;1;0;402;-316;3887;-1279;-159;-122;-63
447622;1;1;0;402;-310;3886;-1293;-159;-119;-54
447632;1;1;0;402;-298;3878;-1290;-161;-119;-48
447642;1;1;0;402;-291;3893;-1292;-154;-131;-41
447652;1;1;0;402;-296;3884;-1307;-148;-124;-47
447662;1;1;0;402;-288;3890;-1311;-154;-123;-42
447672;1;1;0;402;-283;3887;-1312;-145;-121;-32
447682;1;1;0;402;-287;3875;-1312;-138;-121;-25
447692;1;1;0;402;-287;3872;-1309;-136;-125;-26
447702;1;1;0;402;-286;3868;-1311;-142;-145;-30
447712;1;1;0;402;-310;3868;-1308;-146;-151;-30
447722;1;1;0;402;-291;3880;-1311;-145;-159;-31
447732;1;1;0;402;-289;3883;-1302;-145;-160;-35
447742;1;1;0;402;-285;3875;-1313;-154;-151;-37
447752;1;1;0;402;-308;3885;-1317;-155;-148;-30
447762;1;1;0;402;-288;3875;-1304;-157;-140;-30
447772;1;1;0;402;-309;3875;-1323;-152;-134;-21
447782;1;1;0;402;-307;3878;-1309;-148;-131;-15
447792;1;1;0;402;-295;3877;-1312;-138;-119;-13
447802;1;1;0;402;-287;3875;-1305;-134;-99;-16
447812;1;1;0;402;-266;3875;-1310;-138;-84;-28
447822;1;1;0;402;-269;3875;-1315;-135;-77;-40
447832;1;1;0;402;-283;3877;-1312;-147;-84;-35
447842;1;1;0;402;-291;3884;-1321;-150;-91;-29
447852;1;1;0;402;-277;3879;-1311;-146;-97;-25
447862;1;1;0;403;-309;3862;-1293;-137;-98;-41
447872;1;1;0;403;-294;3872;-1303;-135;-105;-53
447882;1;1;0;403;-281;3853;-1295;-151;-101;-56
447892;1;1;0;403;-295;3871;-1300;-152;-110;-66
447902;1;1;0;403;-307;3872;-1306;-161;-130;-71
447912;1;1;0;403;-300;3879;-1295;-165;-139;-78
447922;1;1;0;403;-302;3876;-1297;-163;-148;-70
447932;1;1;0;403;-309;3879;-1302;-170;-133;-53
447942;1;1;0;403;-299;3877;-1317;-165;-118;-48
447952;1;1;0;403;-309;3884;-1311;-151;-97;-34
447962;1;1;0;403;-294;3894;-1305;-141;-82;-21
447972;1;1;0;403;-279;3894;-1292;-119;-84;-16
447982;1;1;0;403;-298;3895;-1298;-115;-94;-16
447992;1;1;0;403;-293;3885;-1295;-119;-95;-23
448002;1;1;0;403;-292;3883;-1315;-129;-82;-24
448012;1;1;0;403;-300;3883;-1320;-132;-86;-23
448022;1;1;0;403;-292;3886;-1302;-127;-85;-20
448032;1;1;0;403;-287;3874;-1325;-143;-87;-21
448042;1;1;0;403;-294;3880;-1313;-146;-92;-16
448052;1;1;0;403;-280;3879;-1303;-129;-90;-14
448062;1;1;0;403;-291;3882;-1320;-138;-85;-18
448072;1;1;0;403;-294;3867;-1315;-135;-88;-17
448082;1;1;0;403;-291;3868;-1309;-136;-82;-18
448092;1;1;0;403;-285;3876;-1285;-145;-86;-23
448102;1;1;0;403;-299;3875;-1292;-132;-103;-29
448112;1;1;0;403;-286;3874;-1289;-145;-105;-37
448122;1;1;0;403;-293;3884;-1293;-139;-118;-44
448132;1;1;0;403;-294;3895;-1298;-154;-116;-53
448142;1;1;0;403;-286;3896;-1313;-148;-121;-46
448152;1;1;0;403;-290;3885;-1297;-142;-134;-43
448162;1;1;0;403;-288;3879;-1290;-138;-143;-37
448172;1;1;0;403;-279;3881;-1281;-146;-139;-30
448182;1;1;0;403;-291;3872;-1297;-142;-160;-29
448192;1;1;0;403;-276;3868;-1300;-153;-174;-39
448202;1;1;0;403;-282;3873;-1299;-159;-175;-43
448212;1;1;0;403;-267;3876;-1331;-161;-164;-28
448222;1;1;0;403;-277;3880;-1337;-159;-146;-33
448232;1;1;0;403;-286;3880;-1330;-149;-134;-36
448242;1;1;0;403;-278;3887;-1316;-142;-127;-31
448252;1;1;0;403;-274;3872;-1310;-142;-113;-20
448262;1;1;0;403;-267;3873;-1313;-152;-99;-32
448272;1;1;0;403;-261;3852;-1307;-156;-88;-45
448282;1;1;0;403;-276;3863;-1326;-155;-91;-66
448292;1;1;0;403;-280;3859;-1301;-155;-92;-75
448302;1;1;0;403;-278;3867;-1307;-166;-84;-80
448312;1;1;0;403;-282;3885;-1310;-152;-92;-73
448322;1;1;0;403;-308;3893;-1296;-162;-87;-67
448332;1;1;0;403;-294;3906;-1290;-157;-84;-65
448342;1;1;0;403;-307;3894;-1303;-134;-78;-57
448352;1;1;0;403;-291;3894;-1293;-128;-78;-47
448363;1;1;0;404;-285;3885;-1292;-133;-73;-37
448373;1;1;0;404;-265;3887;-1277;-123;-84;-29
448383;1;1;0;404;-262;3878;-1301;-121;-91;-33
448393;1;1;0;404;-260;3874;-1298;-135;-101;-37
448403;1;1;0;404;-255;3866;-1318;-131;-113;-40
448413;1;1;0;404;-266;3882;-1310;-145;-107;-47
448423;1;1;0;404;-273;3873;-1314;-147;-99;-48
448433;1;1;0;404;-281;3867;-1312;-135;-98;-52
448443;1;1;0;404;-282;3877;-1300;-141;-85;-63
448453;1;1;0;404;-285;3882;-1313;-131;-96;-63
448463;1;1;0;404;-279;3886;-1309;-145;-96;-55
448473;1;1;0;404;-274;3874;-1276;-148;-99;-42
448483;1;1;0;404;-266;3889;-1290;-152;-89;-30
448493;1;1;0;404;-270;3884;-1300;-143;-84;-18
448503;1;1;0;404;-253;3874;-1319;-156;-80;-12
448513;1;1;0;404;-255;3867;-1321;-143;-74;-14
448523;1;1;0;404;-258;3881;-1315;-141;-73;-23
448533;1;1;0;404;-268;3875;-1313;-135;-69;-22
448543;1;1;0;404;-263;3880;-1307;-140;-70;-27
448553;1;1;0;404;-267;3878;-1304;-144;-66;-33
448563;1;1;0;404;-275;3882;-1300;-140;-64;-39
448573;1;1;0;404;-259;3874;-1314;-146;-64;-38
448583;1;1;0;404;-270;3870;-1301;-163;-71;-39
448593;1;1;0;404;-265;3867;-1307;-164;-73;-34
448603;1;1;0;404;-260;3869;-1279;-175;-80;-39
448613;1;1;0;404;-258;3863;-1294;-174;-104;-49
448623;1;1;0;404;-275;3866;-1285;-174;-124;-60
448633;1;1;0;404;-264;3886;-1300;-156;-142;-53
448643;1;1;0;404;-278;3888;-1307;-160;-128;-44
448653;1;1;0;404;-286;3886;-1294;-141;-111;-25
448663;1;1;0;404;-265;3878;-1279;-132;-95;-17
448673;1;1;0;404;-262;3884;-1300;-127;-98;-23
448683;1;1;0;404;-272;3887;-1338;-139;-103;-32
448693;1;1;0;404;-284;3878;-1319;-145;-103;-45
448703;1;1;0;404;-279;3890;-1307;-152;-92;-59
448713;1;1;0;404;-279;3890;-1303;-146;-79;-58
448723;1;1;0;404;-286;3897;-1293;-147;-85;-56
448733;1;1;0;404;-277;3894;-1300;-137;-91;-41
448743;1;1;0;404;-268;3871;-1292;-137;-99;-36
448753;1;1;0;404;-266;3871;-1298;-141;-110;-34
448763;1;1;0;404;-267;3872;-1295;-137;-121;-40
448773;1;1;0;404;-255;3888;-1288;-135;-131;-39
448783;1;1;0;404;-257;3883;-1281;-145;-131;-51
448793;1;1;0;404;-264;3880;-1298;-129;-132;-43
448803;1;1;0;404;-269;3890;-1305;-141;-130;-44
448813;1;1;0;404;-253;3887;-1307;-137;-126;-32
448823;1;1;0;404;-255;3886;-1313;-144;-116;-37
448833;1;1;0;404;-275;3876;-1325;-138;-110;-49
448843;1;1;0;404;-267;3887;-1307;-149;-98;-62
448853;1;1;0;404;-266;3876;-1319;-145;-101;-65
448862;1;1;0;405;-265;3876;-1310;-147;-99;-66
448872;1;1;0;405;-260;3870;-1321;-160;-87;-62
448882;1;1;0;405;-265;3866;-1311;-162;-81;-63
448892;1;1;0;405;-266;3871;-1293;-150;-93;-63
448902;1;1;0;405;-282;3866;-1306;-160;-94;-72
448912;1;1;0;405;-263;3895;-1304;-156;-93;-75
448922;1;1;0;405;-262;3894;-1314;-155;-86;-72
448932;1;1;0;405;-255;3889;-1314;-144;-86;-77
448942;1;1;0;405;-262;3882;-1322;-146;-81;-76
448952;1;1;0;405;-270;3879;-1319;-137;-84;-79
448962;1;1;0;405;-270;3880;-1291;-145;-85;-75
448972;1;1;0;405;-264;3877;-1291;-140;-97;-82
448982;1;1;0;405;-267;3877;-1300;-136;-96;-83
448992;1;1;0;405;-274;3879;-1294;-145;-95;-85
449002;1;1;0;405;-268;3883;-1302;-140;-93;-79
449012;1;1;0;405;-274;3873;-1324;-139;-95;-73
449022;1;1;0;405;-278;3882;-1322;-146;-84;-63
449032;1;1;0;405;-262;3904;-1321;-148;-74;-58
449042;1;1;0;405;-268;3883;-1291;-144;-73;-64
449052;1;1;0;405;-267;3877;-1300;-138;-70;-71
449062;1;1;0;405;-240;3884;-1286;-134;-77;-73
449072;1;1;0;405;-255;3889;-1298;-133;-83;-72
449082;1;1;0;405;-246;3881;-1294;-139;-80;-54
449092;1;1;0;405;-244;3875;-1324;-133;-79;-53
449102;1;1;0;405;-254;3878;-1309;-146;-74;-52
449112;1;1;0;405;-262;3871;-1317;-152;-80;-68
449122;1;1;0;405;-257;3880;-1317;-156;-74;-88
449132;1;1;0;405;-277;3869;-1318;-154;-80;-98
449142;1;1;0;405;-281;3880;-1298;-157;-79;-102
449152;1;1;0;405;-270;3871;-1294;-155;-85;-95
449162;1;1;0;405;-275;3876;-1287;-146;-96;-84
449172;1;1;0;405;-275;3883;-1286;-136;-94;-79
449182;1;1;0;405;-270;3880;-1281;-130;-98;-76
449192;1;1;0;405;-274;3885;-1293;-133;-98;-69
449202;1;1;0;405;-269;3875;-1300;-147;-88;-72
449212;1;1;0;405;-277;3876;-1327;-150;-83;-79
449222;1;1;0;405;-272;3877;-1333;-147;-76;-88
449232;1;1;0;405;-275;3892;-1306;-149;-59;-89
449242;1;1;0;405;-272;3885;-1315;-140;-63;-91
449252;1;1;0;405;-279;3896;-1313;-139;-63;-86
449262;1;1;0;405;-273;3888;-1330;-142;-56;-75
449272;1;1;0;405;-255;3886;-1312;-146;-56;-78
449282;1;1;0;405;-263;3880;-1270;-131;-75;-88
449292;1;1;0;405;-266;3883;-1281;-147;-94;-92
449302;1;1;0;405;-255;3867;-1287;-143;-104;-84
449312;1;1;0;405;-268;3880;-1310;-147;-102;-70
449322;1;1;0;405;-280;3882;-1291;-147;-97;-54
449332;1;1;0;405;-270;3887;-1307;-143;-95;-45
449342;1;1;0;405;-268;3883;-1318;-136;-95;-41
449352;1;1;0;405;-275;3888;-1323;-130;-107;-49
449362;1;1;0;406;-266;3886;-1285;-116;-119;-56
449372;1;1;0;406;-279;3901;-1298;-122;-117;-60
449382;1;1;0;406;-287;3890;-1287;-124;-113;-62
449392;1;1;0;406;-277;3888;-1301;-113;-114;-56
449402;1;1;0;406;-288;3879;-1307;-128;-104;-44
449412;1;1;0;406;-289;3888;-1302;-121;-98;-27
449422;1;1;0;406;-265;3882;-1313;-131;-74;-24
449432;1;1;0;406;-265;3879;-1339;-131;-60;-26
449442;1;1;0;406;-258;3884;-1343;-134;-38;-31
449452;1;1;0;406;-249;3871;-1320;-126;-29;-35
449462;1;1;0;406;-261;3857;-1301;-134;-29;-41
449472;1;1;0;406;-243;3869;-1279;-140;-34;-48
449482;1;1;0;406;-234;3864;-1279;-140;-55;-59
449492;1;1;0;406;-240;3876;-1284;-162;-84;-77
449502;1;1;0;406;-248;3861;-1296;-165;-103;-107
449512;1;1;0;406;-248;3867;-1313;-173;-100;-135
449522;1;1;0;406;-268;3873;-1321;-173;-104;-153
449532;1;1;0;406;-295;3887;-1316;-184;-88;-159
449542;1;1;0;406;-295;3888;-1319;-173;-62;-145
449552;1;1;0;406;-302;3898;-1312;-160;-46;-132
449562;1;1;0;406;-306;3886;-1309;-156;-37;-118
449572;1;1;0;406;-302;3906;-1292;-136;-48;-106
449582;1;1;0;406;-295;3893;-1279;-122;-54;-96
449592;1;1;0;406;-292;3898;-1294;-114;-57;-76
449602;1;1;0;406;-264;3895;-1295;-120;-55;-48
449612;1;1;0;406;-244;3910;-1294;-124;-61;-30
449622;1;1;0;406;-256;3902;-1298;-134;-62;-15
449632;1;1;0;406;-231;3881;-1320;-146;-61;-12
449642;1;1;0;406;-223;3863;-1317;-145;-54;-27
449652;1;1;0;406;-247;3848;-1316;-146;-62;-53
449662;1;1;0;406;-231;3851;-1307;-153;-82;-79
449672;1;1;0;406;-252;3857;-1318;-156;-85;-85
449682;1;1;0;406;-245;3875;-1318;-163;-68;-89
449692;1;1;0;406;-237;3877;-1312;-155;-66;-94
449702;1;1;0;406;-251;3899;-1318;-164;-56;-100
449712;1;1;0;406;-255;3886;-1315;-159;-52;-101
449722;1;1;0;406;-262;3895;-1331;-157;-36;-89
449732;1;1;0;406;-262;3868;-1317;-157;-34;-86
449742;1;1;0;406;-280;3866;-1292;-151;-38;-84
449752;1;1;0;406;-266;3853;-1283;-151;-45;-90
449762;1;1;0;406;-271;3867;-1286;-150;-72;-106
449772;1;1;0;406;-275;3876;-1294;-153;-96;-94
449782;1;1;0;406;-274;3883;-1282;-146;-117;-76
449792;1;1;0;406;-270;3885;-1305;-141;-126;-61
449802;1;1;0;406;-273;3895;-1322;-134;-123;-53
449812;1;1;0;406;-264;3883;-1320;-139;-103;-52
449822;1;1;0;406;-281;3871;-1338;-144;-82;-56
449832;1;1;0;406;-271;3869;-1345;-131;-63;-45
449842;1;1;0;406;-262;3851;-1322;-134;-41;-51
449852;1;1;0;406;-252;3855;-1333;-145;-29;-53
449862;1;1;0;407;-247;3847;-1346;-140;-21;-76
449872;1;1;0;407;-257;3884;-1334;-130;-29;-98
449882;1;1;0;407;-279;3917;-1308;-135;-46;-104
449892;1;1;0;407;-292;3918;-1313;-145;-55;-86
449902;1;1;0;407;-285;3895;-1271;-149;-56;-50
449912;1;1;0;407;-272;3877;-1261;-140;-74;-28
449922;1;1;0;407;-263;3880;-1281;-138;-108;-26
449932;1;1;0;407;-248;3875;-1305;-154;-140;-36
449942;1;1;0;407;-254;3882;-1306;-151;-157;-40
449952;1;1;0;407;-256;3858;-1307;-149;-166;-45
449962;1;1;0;407;-248;3870;-1322;-158;-171;-46
449972;1;1;0;407;-250;3870;-1321;-153;-163;-45
449982;1;1;0;407;-259;3866;-1326;-148;-151;-36
449992;1;1;0;407;-243;3861;-1327;-154;-132;-41
450002;1;1;0;407;-233;3868;-1339;-150;-119;-52
450012;1;1;0;407;-241;3864;-1369;-167;-111;-84
450022;1;1;0;407;-253;3877;-1340;-164;-105;-113
450032;1;1;0;407;-272;3890;-1326;-172;-88;-129
450042;1;1;0;407;-289;3898;-1289;-172;-81;-131
450052;1;1;0;407;-296;3892;-1269;-168;-80;-121
450062;1;1;0;407;-271;3884;-1275;-148;-83;-112
450072;1;1;0;407;-283;3894;-1293;-130;-99;-104
450082;1;1;0;407;-258;3885;-1295;-125;-100;-92
450092;1;1;0;407;-259;3891;-1322;-116;-103;-79
450102;1;1;0;407;-281;3888;-1328;-114;-106;-77
450112;1;1;0;407;-273;3890;-1336;-129;-100;-57
450122;1;1;0;407;-277;3899;-1317;-132;-103;-48
450132;1;1;0;407;-269;3896;-1309;-135;-92;-36
450142;1;1;0;407;-243;3879;-1316;-137;-79;-30
450152;1;1;0;407;-250;3861;-1322;-146;-63;-37
450162;1;1;0;407;-256;3832;-1346;-130;-63;-73
450172;1;1;0;407;-264;3847;-1323;-134;-68;-109
450182;1;1;0;407;-265;3855;-1323;-133;-79;-140
450192;1;1;0;407;-275;3853;-1320;-132;-88;-138
450202;1;1;0;407;-280;3871;-1315;-113;-78;-111
450212;1;1;0;407;-273;3886;-1344;-99;-65;-81
450222;1;1;0;407;-286;3885;-1366;-102;-54;-59
450232;1;1;0;407;-283;3890;-1350;-109;-46;-53
450242;1;1;0;407;-263;3882;-1344;-101;-36;-64
450252;1;1;0;407;-280;3876;-1344;-94;-49;-69
450262;1;1;0;407;-280;3891;-1337;-110;-67;-60
450272;1;1;0;407;-263;3891;-1328;-111;-68;-44
450282;1;1;0;407;-260;3887;-1335;-124;-67;-22
450292;1;1;0;407;-249;3886;-1351;-126;-70;-13
450302;1;1;0;407;-248;3860;-1337;-131;-69;-21
450312;1;1;0;407;-247;3836;-1319;-124;-60;-38
450322;1;1;0;407;-251;3859;-1325;-133;-66;-69
450332;1;1;0;407;-244;3853;-1304;-135;-78;-91
450342;1;1;0;407;-257;3877;-1315;-134;-71;-107
450352;1;1;0;407;-243;3866;-1306;-132;-71;-109
450362;1;1;0;408;-251;3874;-1293;-125;-74;-108
450372;1;1;0;408;-274;3874;-1309;-121;-79;-104
450382;1;1;0;408;-287;3893;-1305;-119;-91;-95
450392;1;1;0;408;-265;3914;-1309;-142;-93;-70
450402;1;1;0;408;-270;3913;-1338;-161;-84;-26
450412;1;1;0;408;-245;3872;-1304;-153;-63;-4
450422;1;1;0;408;-225;3865;-1277;-134;-63;-22
450432;1;1;0;408;-240;3859;-1280;-138;-87;-63
450442;1;1;0;408;-255;3883;-1320;-149;-103;-86
450452;1;1;0;408;-256;3887;-1309;-138;-108;-78
450462;1;1;0;408;-280;3886;-1310;-134;-110;-74
450472;1;1;0;408;-268;3877;-1300;-136;-113;-70
450482;1;1;0;408;-262;3876;-1318;-138;-105;-82
450492;1;1;0;408;-268;3886;-1312;-127;-107;-80
450502;1;1;0;408;-279;3878;-1308;-140;-106;-66
450512;1;1;0;408;-264;3880;-1315;-140;-89;-46
450522;1;1;0;408;-252;3881;-1329;-147;-81;-39
450532;1;1;0;408;-234;3880;-1328;-148;-77;-41
450542;1;1;0;408;-227;3876;-1336;-154;-71;-39
450552;1;1;0;408;-241;3872;-1350;-161;-67;-41
450562;1;1;0;408;-241;3867;-1320;-152;-74;-57
450572;1;1;0;408;-265;3854;-1316;-155;-79;-84
450582;1;1;0;408;-285;3849;-1288;-151;-90;-112
450592;1;1;0;408;-270;3884;-1301;-153;-107;-115
450602;1;1;0;408;-273;3892;-1310;-161;-134;-101
450612;1;1;0;408;-285;3905;-1301;-172;-148;-72
450622;1;1;0;408;-254;3881;-1315;-170;-145;-48
450632;1;1;0;408;-241;3871;-1295;-175;-135;-44
450642;1;1;0;408;-263;3860;-1330;-160;-128;-62
450652;1;1;0;408;-257;3857;-1291;-149;-114;-67
450662;1;1;0;408;-257;3870;-1296;-153;-107;-71
450672;1;1;0;408;-255;3884;-1307;-151;-115;-68
450682;1;1;0;408;-251;3890;-1324;-148;-131;-66
450692;1;1;0;408;-236;3896;-1325;-151;-129;-56
450702;1;1;0;408;-243;3896;-1319;-138;-112;-49
450712;1;1;0;408;-248;3885;-1332;-147;-94;-45
450722;1;1;0;408;-234;3883;-1350;-148;-84;-43
450732;1;1;0;408;-243;3874;-1331;-152;-81;-58
450742;1;1;0;408;-245;3870;-1331;-156;-76;-65
450752;1;1;0;408;-230;3854;-1301;-150;-64;-71
450762;1;1;0;408;-253;3854;-1337;-155;-63;-84
450772;1;1;0;408;-264;3867;-1327;-157;-62;-92
450782;1;1;0;408;-263;3879;-1345;-161;-69;-96
450792;1;1;0;408;-286;3904;-1319;-146;-72;-78
450802;1;1;0;408;-274;3909;-1305;-154;-62;-50
450812;1;1;0;408;-258;3893;-1303;-143;-71;-30
450822;1;1;0;408;-260;3886;-1307;-145;-75;-28
450832;1;1;0;408;-262;3875;-1304;-136;-95;-34
450842;1;1;0;408;-252;3857;-1319;-139;-99;-52
450852;1;1;0;408;-264;3864;-1303;-140;-105;-67
450862;1;1;0;409;-281;3876;-1317;-142;-120;-73
450872;1;1;0;409;-268;3868;-1327;-154;-129;-66
450882;1;1;0;409;-266;3879;-1313;-164;-120;-50
450892;1;1;0;409;-263;3882;-1326;-160;-124;-31
450902;1;1;0;409;-253;3894;-1313;-148;-124;-19
450912;1;1;0;409;-260;3881;-1320;-138;-127;-15
450922;1;1;0;409;-264;3882;-1317;-142;-105;-12
450932;1;1;0;409;-261;3872;-1300;-140;-96;-11
450942;1;1;0;409;-253;3866;-1328;-134;-94;-19
450952;1;1;0;409;-248;3865;-1335;-141;-100;-29
450962;1;1;0;409;-254;3868;-1310;-146;-106;-39
450972;1;1;0;409;-264;3884;-1312;-143;-120;-46
450982;1;1;0;409;-261;3876;-1304;-150;-123;-48
450992;1;1;0;409;-262;3873;-1323;-136;-138;-43
451002;1;1;0;409;-279;3889;-1314;-144;-136;-34
451012;1;1;0;409;-274;3899;-1317;-163;-143;-24
451022;1;1;0;409;-251;3881;-1301;-156;-131;-16
451032;1;1;0;409;-255;3873;-1296;-157;-121;-16
451042;1;1;0;409;-257;3880;-1317;-144;-127;-34
451052;1;1;0;409;-257;3862;-1298;-141;-128;-52
451062;1;1;0;409;-251;3867;-1318;-127;-130;-73
451072;1;1;0;409;-277;3882;-1333;-115;-137;-76
451082;1;1;0;409;-267;3873;-1329;-124;-130;-54
451092;1;1;0;409;-274;3893;-1343;-121;-133;-18
451102;1;1;0;409;-274;3888;-1306;-120;-129;20
451112;1;1;0;409;-263;3874;-1315;-110;-137;39
451122;1;1;0;409;-253;3891;-1303;-112;-139;52
451132;1;1;0;409;-256;3892;-1327;-121;-138;52
451142;1;1;0;409;-225;3880;-1343;-127;-141;41
451152;1;1;0;409;-240;3874;-1341;-143;-137;29
451162;1;1;0;409;-237;3870;-1349;-156;-115;21
451172;1;1;0;409;-235;3849;-1330;-150;-111;-5
451182;1;1;0;409;-260;3845;-1325;-144;-109;-33
451192;1;1;0;409;-262;3854;-1301;-142;-120;-60
451202;1;1;0;409;-254;3865;-1303;-144;-136;-83
451212;1;1;0;409;-266;3890;-1310;-139;-163;-98
451222;1;1;0;409;-280;3895;-1304;-152;-177;-83
451232;1;1;0;409;-266;3905;-1298;-166;-181;-59
451242;1;1;0;409;-275;3908;-1306;-162;-174;-22
451252;1;1;0;409;-267;3889;-1304;-153;-170;-11
451262;1;1;0;409;-257;3868;-1295;-155;-171;-19
451272;1;1;0;409;-254;3874;-1334;-146;-175;-38
451282;1;1;0;409;-254;3879;-1334;-149;-168;-48
451292;1;1;0;409;-232;3896;-1329;-161;-157;-49
451302;1;1;0;409;-236;3876;-1330;-164;-162;-50
451312;1;1;0;409;-255;3866;-1342;-168;-157;-52
451322;1;1;0;409;-239;3870;-1324;-155;-153;-61
451332;1;1;0;409;-251;3858;-1297;-148;-151;-68
451342;1;1;0;409;-254;3882;-1304;-133;-158;-68
451352;1;1;0;409;-242;3896;-1300;-145;-164;-68
451362;1;1;0;410;-237;3903;-1318;-140;-178;-42
451372;1;1;0;410;-239;3897;-1331;-158;-185;-12
451382;1;1;0;410;-232;3878;-1328;-166;-171;0
451392;1;1;0;410;-227;3860;-1316;-154;-152;-5
451402;1;1;0;410;-253;3854;-1323;-141;-136;-27
451412;1;1;0;410;-254;3871;-1333;-147;-125;-67
451422;1;1;0;410;-246;3874;-1355;-154;-115;-75
451432;1;1;0;410;-245;3881;-1344;-164;-89;-63
451442;1;1;0;410;-239;3875;-1339;-165;-58;-50
451452;1;1;0;410;-226;3862;-1324;-153;-42;-51
451462;1;1;0;410;-240;3859;-1319;-153;-25;-66
451472;1;1;0;410;-247;3871;-1317;-146;-27;-88
451482;1;1;0;410;-239;3878;-1308;-147;-25;-103
451492;1;1;0;410;-252;3891;-1295;-145;-29;-110
451502;1;1;0;410;-249;3903;-1293;-151;-40;-103
451512;1;1;0;410;-254;3897;-1296;-161;-48;-96
451522;1;1;0;410;-260;3886;-1292;-152;-68;-91
451532;1;1;0;410;-250;3895;-1296;-155;-91;-90
451542;1;1;0;410;-242;3884;-1273;-168;-102;-76
451552;1;1;0;410;-252;3876;-1276;-162;-105;-66
451562;1;1;0;410;-242;3880;-1286;-155;-109;-62
451572;1;1;0;410;-233;3882;-1307;-140;-119;-64
451582;1;1;0;410;-250;3895;-1314;-147;-125;-59
451592;1;1;0;410;-244;3876;-1316;-142;-128;-39
451602;1;1;0;410;-248;3886;-1326;-146;-122;-30
451612;1;1;0;410;-249;3866;-1299;-156;-114;-41
451622;1;1;0;410;-246;3865;-1292;-151;-121;-59
451632;1;1;0;410;-257;3876;-1306;-158;-132;-73
451642;1;1;0;410;-259;3875;-1332;-157;-132;-70
451652;1;1;0;410;-257;3889;-1334;-163;-119;-70
451662;1;1;0;410;-259;3885;-1323;-152;-106;-69
451672;1;1;0;410;-258;3885;-1340;-148;-87;-65
451682;1;1;0;410;-261;3878;-1322;-149;-72;-60
451692;1;1;0;410;-244;3879;-1333;-136;-61;-58
451702;1;1;0;410;-234;3870;-1334;-148;-52;-69
451712;1;1;0;410;-254;3858;-1314;-145;-60;-82
451722;1;1;0;410;-230;3886;-1294;-150;-66;-91
451732;1;1;0;410;-249;3878;-1303;-155;-67;-98
451742;1;1;0;410;-248;3887;-1293;-154;-68;-98
451752;1;1;0;410;-250;3892;-1304;-153;-71;-88
451762;1;1;0;410;-254;3888;-1297;-153;-76;-82
451772;1;1;0;410;-258;3892;-1312;-145;-81;-74
451782;1;1;0;410;-260;3887;-1289;-141;-92;-79
451792;1;1;0;410;-250;3877;-1301;-144;-101;-77
451802;1;1;0;410;-233;3881;-1317;-151;-105;-79
451812;1;1;0;410;-242;3881;-1316;-160;-104;-85
451822;1;1;0;410;-252;3873;-1327;-151;-105;-95
451832;1;1;0;410;-256;3863;-1315;-156;-90;-104
451842;1;1;0;410;-257;3868;-1312;-145;-91;-114
451852;1;1;0;410;-276;3872;-1325;-144;-93;-109
451862;1;1;0;411;-278;3883;-1311;-149;-81;-97
451872;1;1;0;411;-268;3888;-1310;-154;-76;-87
451882;1;1;0;411;-257;3901;-1330;-153;-65;-70
451892;1;1;0;411;-245;3893;-1307;-148;-55;-58
451902;1;1;0;411;-241;3884;-1287;-152;-47;-71
451912;1;1;0;411;-233;3860;-1302;-135;-58;-91
451922;1;1;0;411;-241;3878;-1297;-138;-58;-105
451932;1;1;0;411;-258;3869;-1313;-137;-66;-104
451942;1;1;0;411;-247;3875;-1298;-145;-65;-105
451952;1;1;0;411;-244;3880;-1290;-148;-83;-101
451962;1;1;0;411;-240;3878;-1303;-158;-89;-98
451972;1;1;0;411;-258;3882;-1303;-154;-111;-96
451982;1;1;0;411;-243;3883;-1315;-172;-113;-86
451992;1;1;0;411;-232;3862;-1316;-173;-106;-85
452002;1;1;0;411;-245;3864;-1318;-161;-89;-95
452012;1;1;0;411;-249;3873;-1320;-160;-73;-104
452022;1;1;0;411;-259;3875;-1334;-145;-68;-109
452032;1;1;0;411;-264;3881;-1331;-141;-68;-106
452042;1;1;0;411;-276;3891;-1322;-140;-75;-105
452052;1;1;0;411;-274;3903;-1307;-143;-77;-104
452062;1;1;0;411;-263;3898;-1304;-142;-83;-96
452072;1;1;0;411;-271;3888;-1301;-132;-97;-77
452082;1;1;0;411;-262;3899;-1309;-137;-94;-55
452092;1;1;0;411;-263;3890;-1325;-135;-98;-46
452102;1;1;0;411;-264;3868;-1316;-146;-94;-49
452112;1;1;0;411;-254;3871;-1330;-142;-101;-61
452122;1;1;0;411;-259;3865;-1317;-145;-94;-71
452132;1;1;0;411;-266;3874;-1318;-137;-87;-73
452142;1;1;0;411;-258;3888;-1298;-120;-78;-64
452152;1;1;0;411;-268;3875;-1318;-134;-63;-60
452162;1;1;0;411;-257;3875;-1322;-136;-54;-60
452172;1;1;0;411;-252;3868;-1300;-141;-59;-64
452182;1;1;0;411;-247;3884;-1315;-142;-70;-76
452192;1;1;0;411;-260;3890;-1300;-152;-85;-74
452202;1;1;0;411;-235;3896;-1309;-158;-86;-69
452212;1;1;0;411;-251;3879;-1318;-164;-90;-58
452222;1;1;0;411;-277;3873;-1310;-162;-89;-55
452232;1;1;0;411;-261;3858;-1310;-157;-86;-61
452242;1;1;0;411;-260;3865;-1302;-153;-85;-82
452252;1;1;0;411;-277;3865;-1320;-154;-87;-99
452262;1;1;0;411;-263;3900;-1333;-158;-97;-107
452272;1;1;0;411;-267;3901;-1316;-149;-92;-90
452282;1;1;0;411;-284;3895;-1303;-152;-96;-68
452292;1;1;0;411;-281;3890;-1289;-155;-96;-54
452302;1;1;0;411;-272;3892;-1286;-143;-100;-47
452312;1;1;0;411;-261;3876;-1323;-144;-99;-43
452322;1;1;0;411;-255;3875;-1296;-134;-108;-47
452332;1;1;0;411;-271;3870;-1293;-130;-113;-59
452342;1;1;0;411;-273;3870;-1317;-137;-112;-68
452352;1;1;0;411;-261;3888;-1304;-152;-111;-67
452362;1;1;0;412;-275;3883;-1316;-137;-110;-58
452372;1;1;0;412;-280;3884;-1313;-135;-102;-41
452382;1;1;0;412;-252;3885;-1312;-138;-92;-35
452392;1;1;0;412;-241;3872;-1305;-131;-83;-34
452402;1;1;0;412;-248;3875;-1313;-131;-72;-49
452412;1;1;0;412;-245;3881;-1312;-143;-65;-76
452422;1;1;0;412;-247;3878;-1293;-141;-75;-91
452432;1;1;0;412;-268;3869;-1298;-160;-85;-92
452442;1;1;0;412;-254;3883;-1295;-164;-98;-94
452452;1;1;0;412;-250;3868;-1294;-168;-108;-93
452462;1;1;0;412;-270;3873;-1284;-157;-120;-112
452472;1;1;0;412;-256;3881;-1302;-153;-135;-118
452482;1;1;0;412;-261;3900;-1300;-155;-150;-123
452492;1;1;0;412;-276;3898;-1299;-149;-162;-107
452502;1;1;0;412;-272;3898;-1300;-150;-154;-81
452512;1;1;0;412;-251;3895;-1330;-162;-142;-61
452522;1;1;0;412;-257;3878;-1329;-156;-127;-57
452532;1;1;0;412;-258;3863;-1331;-145;-127;-75
452542;1;1;0;412;-258;3870;-1309;-146;-127;-87
452552;1;1;0;412;-258;3892;-1302;-141;-135;-84
452562;1;1;0;412;-252;3910;-1312;-138;-146;-65
452572;1;1;0;412;-245;3910;-1316;-150;-149;-44
452582;1;1;0;412;-248;3899;-1316;-141;-135;-26
452592;1;1;0;412;-235;3869;-1323;-146;-112;-18
452602;1;1;0;412;-239;3857;-1335;-156;-83;-37
452612;1;1;0;412;-239;3854;-1350;-147;-80;-63
452622;1;1;0;412;-253;3847;-1339;-146;-78;-85
452632;1;1;0;412;-251;3869;-1339;-141;-93;-100
452642;1;1;0;412;-258;3874;-1312;-153;-97;-91
452652;1;1;0;412;-252;3890;-1316;-147;-98;-74
452662;1;1;0;412;-257;3898;-1304;-134;-76;-44
452672;1;1;0;412;-265;3889;-1299;-126;-66;-26
452682;1;1;0;412;-254;3879;-1294;-113;-71;-19
452692;1;1;0;412;-244;3878;-1315;-105;-88;-37
452702;1;1;0;412;-264;3877;-1311;-118;-102;-55
452712;1;1;0;412;-249;3870;-1317;-120;-109;-63
452722;1;1;0;412;-250;3876;-1347;-135;-99;-55
452732;1;1;0;412;-242;3876;-1338;-125;-97;-46
452742;1;1;0;412;-257;3876;-1345;-138;-94;-42
452752;1;1;0;412;-240;3881;-1330;-136;-87;-43
452762;1;1;0;412;-243;3880;-1325;-129;-87;-54
452772;1;1;0;412;-233;3884;-1320;-145;-78;-60
452782;1;1;0;412;-231;3892;-1327;-141;-80;-63
452792;1;1;0;412;-247;3875;-1337;-147;-70;-59
452802;1;1;0;412;-239;3865;-1328;-131;-54;-49
452812;1;1;0;412;-240;3860;-1326;-128;-36;-61
452822;1;1;0;412;-243;3863;-1328;-138;-34;-79
452832;1;1;0;412;-258;3865;-1338;-147;-25;-99
452842;1;1;0;412;-257;3873;-1337;-146;-33;-117
452852;1;1;0;412;-263;3871;-1315;-157;-36;-126
452862;1;1;0;413;-273;3896;-1310;-146;-45;-133
452872;1;1;0;413;-255;3890;-1290;-146;-58;-120
452882;1;1;0;413;-257;3893;-1290;-149;-58;-104
452892;1;1;0;413;-261;3898;-1288;-154;-54;-85
452902;1;1;0;413;-253;3880;-1297;-147;-64;-83
452912;1;1;0;413;-251;3877;-1308;-142;-64;-77
452922;1;1;0;413;-262;3868;-1316;-131;-73;-96
452932;1;1;0;413;-249;3867;-1304;-131;-87;-105
452942;1;1;0;413;-273;3858;-1314;-137;-95;-109
452952;1;1;0;413;-271;3884;-1324;-123;-98;-105
452962;1;1;0;413;-264;3895;-1339;-128;-88;-93
452972;1;1;0;413;-257;3894;-1319;-130;-78;-81
452982;1;1;0;413;-257;3898;-1315;-140;-72;-71
452992;1;1;0;413;-248;3881;-1315;-133;-66;-71
453002;1;1;0;413;-254;3874;-1311;-142;-62;-76
453012;1;1;0;413;-242;3885;-1303;-137;-65;-82
453022;1;1;0;413;-230;3873;-1323;-141;-68;-77
453032;1;1;0;413;-222;3860;-1319;-153;-57;-83
453042;1;1;0;413;-234;3867;-1337;-147;-56;-107
453052;1;1;0;413;-236;3864;-1335;-143;-59;-121
453062;1;1;0;413;-264;3862;-1321;-149;-46;-130
453072;1;1;0;413;-277;3855;-1309;-155;-33;-139
453082;1;1;0;413;-265;3886;-1310;-150;-28;-140
453092;1;1;0;413;-272;3889;-1298;-149;-47;-139
453102;1;1;0;413;-270;3900;-1286;-150;-61;-129
453112;1;1;0;413;-260;3906;-1290;-154;-69;-117
453122;1;1;0;413;-261;3901;-1289;-151;-73;-85
453132;1;1;0;413;-254;3882;-1286;-151;-74;-75
453142;1;1;0;413;-263;3874;-1300;-154;-86;-79
453152;1;1;0;413;-255;3858;-1304;-157;-92;-88
453162;1;1;0;413;-257;3864;-1292;-156;-92;-102
453172;1;1;0;413;-265;3881;-1300;-140;-103;-117
453182;1;1;0;413;-284;3896;-1294;-134;-110;-111
453192;1;1;0;413;-278;3892;-1309;-144;-121;-93
453202;1;1;0;413;-283;3893;-1308;-141;-120;-69
453212;1;1;0;413;-258;3879;-1307;-133;-136;-62
453222;1;1;0;413;-255;3886;-1311;-142;-137;-48
453232;1;1;0;413;-250;3897;-1342;-139;-149;-44
453242;1;1;0;413;-253;3876;-1330;-154;-142;-49
453252;1;1;0;413;-268;3859;-1341;-146;-139;-66
453262;1;1;0;413;-256;3852;-1326;-153;-129;-83
453272;1;1;0;413;-266;3854;-1325;-154;-106;-94
453282;1;1;0;413;-264;3863;-1338;-155;-86;-99
453292;1;1;0;413;-259;3873;-1328;-160;-79;-104
453302;1;1;0;413;-261;3879;-1304;-151;-91;-111
453312;1;1;0;413;-266;3876;-1303;-163;-91;-112
453322;1;1;0;413;-273;3884;-1307;-162;-93;-116
453332;1;1;0;413;-279;3896;-1306;-154;-93;-98
453342;1;1;0;413;-275;3896;-1303;-159;-74;-82
453352;1;1;0;413;-282;3882;-1306;-145;-88;-69
453362;1;1;0;414;-273;3859;-1292;-145;-101;-69
453372;1;1;0;414;-274;3880;-1304;-140;-119;-76
453382;1;1;0;414;-259;3897;-1329;-136;-125;-75
453392;1;1;0;414;-255;3884;-1310;-138;-123;-69
453402;1;1;0;414;-264;3877;-1328;-148;-109;-59
453412;1;1;0;414;-259;3873;-1341;-150;-102;-59
453422;1;1;0;414;-251;3875;-1322;-143;-97;-73
453432;1;1;0;414;-258;3862;-1318;-138;-100;-90
453442;1;1;0;414;-257;3862;-1315;-146;-93;-101
453452;1;1;0;414;-275;3852;-1319;-144;-87;-112
453462;1;1;0;414;-275;3868;-1332;-153;-82;-117
453472;1;1;0;414;-290;3879;-1330;-154;-75;-116
453482;1;1;0;414;-288;3883;-1325;-159;-63;-111
453492;1;1;0;414;-283;3887;-1323;-158;-62;-94
453502;1;1;0;414;-262;3892;-1316;-164;-56;-85
453512;1;1;0;414;-243;3891;-1306;-170;-69;-84
453522;1;1;0;414;-252;3878;-1316;-166;-71;-100
453532;1;1;0;414;-241;3868;-1312;-158;-85;-117
453542;1;1;0;414;-262;3876;-1298;-168;-87;-135
453552;1;1;0;414;-280;3869;-1277;-162;-99;-140
453562;1;1;0;414;-279;3874;-1280;-168;-103;-130
453572;1;1;0;414;-274;3882;-1307;-161;-112;-127
453582;1;1;0;414;-282;3886;-1295;-154;-126;-115
453592;1;1;0;414;-280;3892;-1306;-155;-143;-102
453602;1;1;0;414;-271;3890;-1317;-160;-144;-86
453612;1;1;0;414;-273;3883;-1329;-156;-132;-58
453622;1;1;0;414;-266;3876;-1344;-145;-115;-47
453632;1;1;0;414;-264;3877;-1348;-157;-90;-44
453642;1;1;0;414;-267;3867;-1352;-154;-76;-59
453652;1;1;0;414;-262;3865;-1326;-157;-77;-77
453662;1;1;0;414;-253;3863;-1314;-154;-71;-89
453672;1;1;0;414;-264;3877;-1305;-157;-70;-97
453682;1;1;0;414;-259;3877;-1300;-157;-79;-101
453692;1;1;0;414;-272;3874;-1309;-157;-90;-101
453702;1;1;0;414;-280;3866;-1326;-163;-88;-100
453712;1;1;0;414;-279;3877;-1315;-152;-80;-104
453722;1;1;0;414;-278;3878;-1335;-151;-83;-104
453732;1;1;0;414;-299;3885;-1320;-157;-80;-112
453742;1;1;0;414;-299;3886;-1305;-143;-100;-104
453752;1;1;0;414;-286;3881;-1312;-155;-106;-94
453762;1;1;0;414;-279;3893;-1293;-146;-106;-86
453772;1;1;0;414;-272;3898;-1285;-142;-111;-83
453782;1;1;0;414;-267;3896;-1313;-144;-108;-76
453792;1;1;0;414;-262;3883;-1333;-145;-105;-71
453802;1;1;0;414;-254;3868;-1327;-142;-108;-69
453812;1;1;0;414;-250;3858;-1307;-139;-102;-73
453822;1;1;0;414;-267;3851;-1328;-141;-106;-92
453832;1;1;0;414;-253;3853;-1335;-162;-103;-113
453842;1;1;0;414;-278;3864;-1340;-167;-102;-138
453852;1;1;0;414;-288;3867;-1346;-167;-97;-151
453862;1;1;0;415;-292;3886;-1335;-175;-78;-149
453872;1;1;0;415;-290;3882;-1345;-179;-57;-132
453882;1;1;0;415;-302;3879;-1322;-171;-43;-123
453892;1;1;0;415;-289;3885;-1317;-168;-37;-103
453902;1;1;0;415;-290;3881;-1319;-166;-31;-100
453912;1;1;0;415;-293;3879;-1301;-151;-31;-96
453922;1;1;0;415;-278;3873;-1296;-141;-50;-94
453932;1;1;0;415;-273;3882;-1299;-152;-61;-94
453942;1;1;0;415;-286;3886;-1291;-158;-78;-94
453952;1;1;0;415;-282;3890;-1311;-166;-94;-91
453962;1;1;0;415;-275;3888;-1316;-163;-104;-87
453972;1;1;0;415;-286;3888;-1325;-150;-105;-86
453982;1;1;0;415;-282;3871;-1312;-150;-111;-88
453992;1;1;0;415;-266;3881;-1297;-151;-112;-84
454002;1;1;0;415;-275;3869;-1318;-153;-118;-82
454012;1;1;0;415;-265;3879;-1323;-154;-133;-84
454022;1;1;0;415;-266;3879;-1328;-172;-134;-86
454032;1;1;0;415;-271;3863;-1341;-175;-119;-94
454042;1;1;0;415;-284;3875;-1309;-174;-97;-103
454052;1;1;0;415;-288;3866;-1310;-160;-86;-103
454062;1;1;0;415;-301;3870;-1325;-154;-72;-95
454072;1;1;0;415;-291;3877;-1315;-160;-80;-83
454082;1;1;0;415;-280;3875;-1313;-154;-97;-93
454092;1;1;0;415;-285;3877;-1305;-148;-110;-98
454102;1;1;0;415;-293;3882;-1289;-163;-111;-107
454112;1;1;0;415;-292;3889;-1300;-161;-103;-114
454122;1;1;0;415;-302;3878;-1316;-158;-104;-110
454132;1;1;0;415;-294;3892;-1322;-153;-103;-109
454142;1;1;0;415;-287;3882;-1333;-161;-93;-97
454152;1;1;0;415;-295;3879;-1312;-156;-80;-86
454162;1;1;0;415;-288;3880;-1321;-145;-75;-80
454172;1;1;0;415;-286;3867;-1328;-151;-72;-86
454182;1;1;0;415;-286;3862;-1310;-141;-79;-84
454192;1;1;0;415;-281;3880;-1291;-146;-83;-86
454202;1;1;0;415;-285;3870;-1295;-147;-77;-81
454212;1;1;0;415;-286;3878;-1290;-144;-88;-70
454222;1;1;0;415;-277;3884;-1325;-155;-89;-71
454232;1;1;0;415;-259;3892;-1324;-152;-87;-74
454242;1;1;0;415;-276;3863;-1320;-150;-79;-76
454252;1;1;0;415;-261;3871;-1323;-163;-70;-86
454262;1;1;0;415;-279;3871;-1320;-160;-73;-106
454272;1;1;0;415;-305;3868;-1295;-165;-76;-119
454282;1;1;0;415;-304;3860;-1310;-160;-75;-121
454292;1;1;0;415;-301;3872;-1293;-161;-85;-120
454302;1;1;0;415;-305;3882;-1295;-158;-90;-115
454312;1;1;0;415;-302;3879;-1305;-156;-91;-112
454322;1;1;0;415;-301;3882;-1314;-160;-84;-109
454332;1;1;0;415;-303;3891;-1325;-163;-68;-95
454342;1;1;0;415;-303;3894;-1339;-149;-56;-83
454352;1;1;0;415;-304;3874;-1326;-143;-50;-75
454362;1;1;0;416;-289;3877;-1324;-146;-48;-85
454372;1;1;0;416;-285;3881;-1300;-147;-60;-92
454382;1;1;0;416;-294;3886;-1274;-142;-85;-106
454392;1;1;0;416;-296;3872;-1293;-146;-101;-101
454402;1;1;0;416;-285;3881;-1304;-144;-115;-87
454412;1;1;0;416;-275;3883;-1313;-153;-123;-82
454422;1;1;0;416;-291;3865;-1308;-164;-126;-74
454432;1;1;0;416;-299;3871;-1301;-153;-135;-73
454442;1;1;0;416;-302;3867;-1303;-163;-127;-69
454452;1;1;0;416;-308;3867;-1323;-155;-122;-72
454462;1;1;0;416;-304;3881;-1326;-163;-115;-73
454472;1;1;0;416;-303;3881;-1309;-157;-109;-68
454482;1;1;0;416;-303;3886;-1325;-155;-116;-57
454492;1;1;0;416;-293;3885;-1292;-160;-122;-52
454502;1;1;0;416;-280;3897;-1296;-154;-123;-49
454512;1;1;0;416;-283;3891;-1307;-164;-125;-44
454522;1;1;0;416;-278;3887;-1299;-153;-127;-41
454532;1;1;0;416;-282;3888;-1300;-155;-119;-51
454542;1;1;0;416;-289;3872;-1314;-159;-119;-51
454552;1;1;0;416;-296;3888;-1294;-152;-129;-45
454562;1;1;0;416;-303;3881;-1295;-141;-136;-27
454572;1;1;0;416;-283;3891;-1306;-142;-142;-13
454582;1;1;0;416;-282;3877;-1292;-142;-153;-13
454592;1;1;0;416;-268;3878;-1307;-139;-169;-16
454602;1;1;0;416;-276;3868;-1325;-151;-167;-15
454612;1;1;0;416;-280;3874;-1321;-156;-156;-19
454622;1;1;0;416;-272;3874;-1318;-166;-138;-21
454632;1;1;0;416;-299;3871;-1315;-165;-133;-33
454642;1;1;0;416;-298;3872;-1333;-165;-117;-50
454652;1;1;0;416;-305;3880;-1326;-161;-108;-55
454662;1;1;0;416;-319;3879;-1307;-151;-95;-57
454672;1;1;0;416;-315;3887;-1292;-152;-92;-49
454682;1;1;0;416;-290;3877;-1281;-146;-87;-45
454692;1;1;0;416;-291;3876;-1304;-144;-87;-37
454702;1;1;0;416;-288;3881;-1294;-148;-83;-38
454712;1;1;0;416;-281;3890;-1319;-153;-91;-38
454722;1;1;0;416;-300;3879;-1328;-160;-88;-44
454732;1;1;0;416;-284;3863;-1333;-163;-77;-56
454742;1;1;0;416;-285;3869;-1306;-155;-77;-74
454752;1;1;0;416;-296;3881;-1292;-144;-88;-93
454762;1;1;0;416;-297;3884;-1284;-152;-95;-85
454772;1;1;0;416;-283;3877;-1285;-154;-110;-71
454782;1;1;0;416;-287;3890;-1290;-152;-128;-61
454792;1;1;0;416;-280;3876;-1293;-158;-145;-60
454802;1;1;0;416;-274;3877;-1301;-155;-162;-61
454812;1;1;0;416;-295;3885;-1295;-164;-158;-66
454822;1;1;0;416;-288;3879;-1316;-161;-146;-62
454832;1;1;0;416;-292;3886;-1319;-151;-133;-47
454842;1;1;0;416;-291;3893;-1305;-149;-123;-32
454852;1;1;0;416;-289;3883;-1291;-144;-122;-37
454862;1;1;0;417;-278;3885;-1280;-147;-124;-43
454872;1;1;0;417;-290;3884;-1297;-144;-121;-36
454882;1;1;0;417;-287;3887;-1320;-145;-110;-32
454892;1;1;0;417;-277;3876;-1326;-166;-92;-37
454902;1;1;0;417;-288;3883;-1321;-170;-77;-47
454912;1;1;0;417;-280;3866;-1325;-163;-73;-62
454922;1;1;0;417;-273;3859;-1294;-163;-69;-77
454932;1;1;0;417;-288;3870;-1309;-154;-66;-91
454942;1;1;0;417;-293;3866;-1299;-160;-72;-102
454952;1;1;0;417;-307;3878;-1281;-153;-87;-105
454962;1;1;0;417;-323;3898;-1280;-150;-98;-102
454972;1;1;0;417;-321;3889;-1275;-143;-119;-83
454982;1;1;0;417;-299;3909;-1288;-144;-111;-58
454992;1;1;0;417;-294;3899;-1299;-151;-113;-33
455002;1;1;0;417;-295;3887;-1295;-149;-116;-34
455012;1;1;0;417;-297;3873;-1316;-151;-116;-53
455022;1;1;0;417;-289;3866;-1282;-145;-121;-73
455032;1;1;0;417;-290;3859;-1326;-135;-119;-83
455042;1;1;0;417;-283;3875;-1279;-138;-118;-90
455052;1;1;0;417;-288;3888;-1305;-132;-118;-84
455062;1;1;0;417;-291;3883;-1314;-135;-121;-72
455072;1;1;0;417;-293;3890;-1324;-153;-123;-59
455082;1;1;0;417;-285;3889;-1293;-153;-116;-51
455092;1;1;0;417;-283;3864;-1302;-155;-108;-49
455102;1;1;0;417;-284;3867;-1320;-148;-101;-71
455112;1;1;0;417;-274;3872;-1307;-146;-99;-83
455122;1;1;0;417;-294;3889;-1319;-149;-99;-92
455132;1;1;0;417;-296;3882;-1294;-148;-96;-90
455142;1;1;0;417;-286;3886;-1285;-155;-93;-87
455152;1;1;0;417;-295;3883;-1306;-148;-90;-83
455162;1;1;0;417;-280;3891;-1306;-147;-92;-90
455172;1;1;0;417;-296;3877;-1304;-164;-94;-93
455182;1;1;0;417;-307;3875;-1298;-165;-101;-93
455192;1;1;0;417;-300;3874;-1276;-156;-115;-101
455202;1;1;0;417;-298;3876;-1278;-151;-124;-105
455212;1;1;0;417;-303;3881;-1272;-139;-120;-95
455222;1;1;0;417;-298;3882;-1310;-136;-121;-77
455232;1;1;0;417;-310;3888;-1306;-132;-126;-58
455242;1;1;0;417;-310;3885;-1304;-130;-121;-45
455252;1;1;0;417;-287;3874;-1297;-130;-119;-44
455262;1;1;0;417;-299;3871;-1304;-139;-111;-60
455272;1;1;0;417;-309;3854;-1306;-142;-107;-78
455282;1;1;0;417;-292;3863;-1328;-149;-117;-93
455292;1;1;0;417;-302;3876;-1319;-160;-109;-97
455302;1;1;0;417;-308;3881;-1304;-153;-106;-85
455312;1;1;0;417;-312;3881;-1298;-145;-98;-67
455322;1;1;0;417;-300;3893;-1294;-150;-81;-48
455332;1;1;0;417;-294;3895;-1282;-140;-79;-40
455342;1;1;0;417;-281;3889;-1306;-140;-75;-43
455352;1;1;0;417;-285;3886;-1322;-147;-71;-55
455362;1;1;0;418;-298;3874;-1269;-135;-75;-68
455372;1;1;0;418;-291;3871;-1278;-128;-79;-78
455382;1;1;0;418;-296;3864;-1290;-128;-94;-86
455392;1;1;0;418;-314;3867;-1303;-140;-103;-85
455402;1;1;0;418;-301;3884;-1307;-143;-104;-83
455412;1;1;0;418;-292;3884;-1312;-139;-111;-74
455422;1;1;0;418;-296;3882;-1314;-141;-110;-62
455432;1;1;0;418;-294;3879;-1351;-152;-105;-59
455442;1;1;0;418;-282;3897;-1317;-155;-98;-58
455452;1;1;0;418;-291;3892;-1293;-146;-90;-68
455462;1;1;0;418;-285;3872;-1296;-147;-89;-88
455472;1;1;0;418;-289;3864;-1273;-142;-82;-98
455482;1;1;0;418;-308;3856;-1298;-145;-78;-113
455492;1;1;0;418;-294;3882;-1310;-154;-73;-111
455502;1;1;0;418;-294;3903;-1323;-162;-69;-109
455512;1;1;0;418;-292;3882;-1304;-155;-76;-104
455522;1;1;0;418;-298;3884;-1316;-154;-82;-94
455532;1;1;0;418;-302;3877;-1309;-155;-86;-91
455542;1;1;0;418;-294;3891;-1274;-149;-88;-90
455552;1;1;0;418;-308;3889;-1289;-148;-72;-79
455562;1;1;0;418;-289;3880;-1309;-144;-61;-57
455572;1;1;0;418;-284;3888;-1309;-138;-65;-41
455582;1;1;0;418;-284;3869;-1291;-135;-72;-42
455592;1;1;0;418;-267;3877;-1301;-130;-68;-56
455602;1;1;0;418;-300;3876;-1313;-138;-58;-61
455612;1;1;0;418;-287;3884;-1311;-131;-42;-58
455622;1;1;0;418;-282;3878;-1304;-127;-36;-50
455632;1;1;0;418;-291;3891;-1325;-127;-32;-45
455642;1;1;0;418;-286;3888;-1308;-133;-27;-45
455652;1;1;0;418;-281;3891;-1282;-125;-40;-36
455662;1;1;0;418;-276;3883;-1288;-127;-47;-24
455672;1;1;0;418;-275;3868;-1284;-125;-56;-27
455682;1;1;0;418;-290;3863;-1309;-123;-62;-36
455692;1;1;0;418;-299;3877;-1319;-135;-64;-42
455702;1;1;0;418;-299;3869;-1298;-130;-57;-40
455712;1;1;0;418;-297;3875;-1328;-141;-40;-32
455722;1;1;0;418;-296;3875;-1338;-138;-22;-35
455732;1;1;0;418;-302;3870;-1321;-128;-20;-41
455742;1;1;0;418;-290;3887;-1296;-125;-27;-58
455752;1;1;0;418;-285;3874;-1296;-126;-36;-56
455762;1;1;0;418;-303;3885;-1289;-132;-46;-44
455772;1;1;0;418;-287;3899;-1307;-126;-51;-25
455782;1;1;0;418;-293;3893;-1293;-128;-44;-6
455792;1;1;0;418;-293;3874;-1298;-133;-38;1
455802;1;1;0;418;-279;3864;-1315;-129;-50;-5
455812;1;1;0;418;-303;3868;-1302;-127;-61;-20
455822;1;1;0;418;-290;3857;-1292;-120;-69;-29
455832;1;1;0;418;-286;3887;-1290;-131;-75;-17
455842;1;1;0;418;-283;3891;-1310;-130;-74;-11
455852;1;1;0;418;-284;3898;-1308;-122;-72;3
455862;1;1;0;419;-279;3891;-1324;-113;-69;3
455872;1;1;0;419;-277;3877;-1305;-114;-71;-1
455882;1;1;0;419;-274;3868;-1308;-116;-64;-5
455892;1;1;0;419;-292;3879;-1296;-121;-74;-20
455902;1;1;0;419;-287;3872;-1283;-128;-91;-27
455912;1;1;0;419;-278;3864;-1289;-138;-91;-25
455922;1;1;0;419;-270;3875;-1316;-128;-100;-19
455932;1;1;0;419;-273;3887;-1312;-135;-99;-14
455942;1;1;0;419;-276;3870;-1302;-126;-101;-12
455952;1;1;0;419;-259;3890;-1319;-132;-95;-19
455962;1;1;0;419;-265;3886;-1317;-121;-95;-18
455972;1;1;0;419;-258;3876;-1300;-129;-92;-30
455982;1;1;0;419;-262;3874;-1297;-122;-93;-38
455992;1;1;0;419;-285;3870;-1314;-127;-91;-49
456002;1;1;0;419;-293;3871;-1294;-124;-98;-56
456012;1;1;0;419;-277;3890;-1316;-136;-99;-56
456022;1;1;0;419;-279;3882;-1313;-137;-102;-39
456032;1;1;0;419;-284;3896;-1312;-140;-106;-18
456042;1;1;0;419;-275;3893;-1331;-142;-102;-1
456052;1;1;0;419;-261;3888;-1330;-146;-88;9
456062;1;1;0;419;-248;3888;-1302;-141;-74;10
456072;1;1;0;419;-246;3890;-1318;-136;-53;6
456082;1;1;0;419;-244;3875;-1335;-131;-39;-7
456092;1;1;0;419;-249;3863;-1312;-130;-29;-16
456102;1;1;0;419;-255;3865;-1330;-134;-11;-23
456112;1;1;0;419;-266;3872;-1339;-126;-17;-38
456122;1;1;0;419;-263;3874;-1315;-129;-28;-52
456132;1;1;0;419;-278;3881;-1295;-122;-38;-50
456142;1;1;0;419;-283;3895;-1315;-120;-57;-39
456152;1;1;0;419;-285;3891;-1299;-129;-73;-30
456162;1;1;0;419;-275;3887;-1306;-129;-86;-29
456172;1;1;0;419;-270;3886;-1305;-130;-88;-21
456182;1;1;0;419;-258;3872;-1312;-135;-77;-9
456192;1;1;0;419;-258;3865;-1324;-122;-77;-16
456202;1;1;0;419;-255;3856;-1337;-123;-75;-28
456212;1;1;0;419;-257;3858;-1330;-111;-88;-41
456222;1;1;0;419;-247;3866;-1332;-118;-101;-49
456232;1;1;0;419;-257;3871;-1333;-118;-111;-50
456242;1;1;0;419;-264;3868;-1318;-136;-93;-36
456252;1;1;0;419;-252;3871;-1339;-132;-58;-27
456262;1;1;0;419;-263;3865;-1349;-124;-42;-16
456272;1;1;0;419;-257;3872;-1343;-129;-28;-16
456282;1;1;0;419;-252;3874;-1343;-129;-38;-30
456292;1;1;0;419;-250;3863;-1327;-118;-38;-44
456302;1;1;0;419;-264;3864;-1322;-115;-38;-59
456312;1;1;0;419;-264;3872;-1313;-118;-28;-64
456322;1;1;0;419;-265;3868;-1321;-138;-26;-67
456332;1;1;0;419;-266;3880;-1321;-145;-24;-76
456342;1;1;0;419;-259;3881;-1322;-147;-22;-68
456352;1;1;0;419;-261;3881;-1318;-139;-14;-73
456362;1;1;0;420;-255;3877;-1326;-134;-11;-74
456372;1;1;0;420;-248;3870;-1314;-136;-18;-90
456382;1;1;0;420;-268;3868;-1301;-137;-28;-105
456392;1;1;0;420;-280;3868;-1306;-136;-44;-107
456402;1;1;0;420;-267;3885;-1294;-130;-64;-94
456412;1;1;0;420;-273;3895;-1296;-126;-77;-65
456422;1;1;0;420;-276;3885;-1315;-143;-79;-40
456432;1;1;0;420;-261;3898;-1327;-133;-91;-33
456442;1;1;0;420;-242;3895;-1324;-133;-89;-35
456452;1;1;0;420;-245;3879;-1324;-133;-95;-41
456462;1;1;0;420;-260;3878;-1320;-133;-95;-48
456472;1;1;0;420;-245;3880;-1338;-128;-94;-43
456482;1;1;0;420;-256;3878;-1335;-128;-92;-32
456492;1;1;0;420;-234;3881;-1333;-145;-86;-20
456502;1;1;0;420;-232;3856;-1326;-146;-87;-26
456512;1;1;0;420;-229;3857;-1345;-137;-89;-43
456522;1;1;0;420;-245;3866;-1350;-131;-86;-59
456532;1;1;0;420;-245;3860;-1321;-139;-88;-72
456542;1;1;0;420;-256;3871;-1330;-145;-89;-62
456552;1;1;0;420;-254;3894;-1316;-150;-91;-45
456562;1;1;0;420;-251;3897;-1313;-149;-96;-36
456572;1;1;0;420;-258;3883;-1314;-146;-102;-26
456582;1;1;0;420;-242;3879;-1320;-144;-108;-26
456592;1;1;0;420;-244;3876;-1311;-143;-97;-25
456602;1;1;0;420;-255;3880;-1337;-147;-96;-33
456612;1;1;0;420;-245;3869;-1321;-148;-101;-36
456622;1;1;0;420;-242;3873;-1324;-151;-104;-41
456632;1;1;0;420;-247;3874;-1323;-153;-108;-48
456642;1;1;0;420;-230;3873;-1317;-153;-104;-45
456652;1;1;0;420;-238;3874;-1343;-143;-105;-45
456662;1;1;0;420;-235;3884;-1327;-151;-105;-45
456672;1;1;0;420;-234;3876;-1334;-155;-94;-57
456682;1;1;0;420;-243;3875;-1327;-152;-101;-67
456692;1;1;0;420;-262;3883;-1316;-148;-121;-73
456702;1;1;0;420;-260;3888;-1304;-157;-127;-60
456712;1;1;0;420;-251;3891;-1295;-163;-128;-44
456722;1;1;0;420;-245;3879;-1334;-151;-125;-33
456732;1;1;0;420;-232;3885;-1332;-145;-119;-25
456742;1;1;0;420;-251;3867;-1345;-123;-111;-22
456752;1;1;0;420;-251;3858;-1341;-117;-115;-30
456762;1;1;0;420;-243;3866;-1326;-120;-115;-32
456772;1;1;0;420;-239;3879;-1327;-122;-116;-23
456782;1;1;0;420;-250;3884;-1335;-139;-121;-18
456792;1;1;0;420;-253;3888;-1335;-152;-115;-17
456802;1;1;0;420;-238;3880;-1334;-159;-89;-10
456812;1;1;0;420;-239;3861;-1320;-144;-76;-15
456822;1;1;0;420;-236;3861;-1322;-132;-69;-38
456832;1;1;0;420;-226;3852;-1354;-139;-70;-53
456842;1;1;0;420;-224;3870;-1350;-140;-64;-61
456852;1;1;0;420;-223;3887;-1348;-141;-67;-60
456862;1;1;0;421;-222;3884;-1325;-137;-79;-57
456872;1;1;0;421;-244;3879;-1293;-136;-92;-56
456882;1;1;0;421;-241;3870;-1300;-139;-104;-52
456892;1;1;0;421;-235;3869;-1305;-141;-116;-56
456902;1;1;0;421;-232;3855;-1305;-140;-131;-65
456912;1;1;0;421;-227;3875;-1320;-146;-143;-90
456922;1;1;0;421;-239;3878;-1316;-162;-156;-100
456932;1;1;0;421;-240;3885;-1345;-156;-164;-91
456942;1;1;0;421;-235;3901;-1348;-141;-142;-53
456952;1;1;0;421;-235;3889;-1324;-139;-117;-21
456962;1;1;0;421;-245;3878;-1322;-143;-116;-16
456972;1;1;0;421;-235;3870;-1312;-141;-130;-27
456982;1;1;0;421;-234;3868;-1299;-130;-156;-51
456992;1;1;0;421;-246;3885;-1324;-132;-160;-69
457002;1;1;0;421;-256;3894;-1332;-141;-157;-73
457012;1;1;0;421;-258;3871;-1331;-150;-134;-57
457022;1;1;0;421;-254;3878;-1335;-153;-107;-42
457032;1;1;0;421;-236;3895;-1345;-152;-88;-29
457042;1;1;0;421;-229;3877;-1350;-150;-80;-38
457052;1;1;0;421;-229;3875;-1345;-132;-75;-44
457062;1;1;0;421;-211;3870;-1327;-138;-72;-49
457072;1;1;0;421;-221;3869;-1312;-137;-83;-54
457082;1;1;0;421;-221;3869;-1293;-148;-86;-69
457092;1;1;0;421;-219;3877;-1280;-139;-106;-84
457102;1;1;0;421;-221;3874;-1279;-146;-114;-86
457112;1;1;0;421;-238;3878;-1302;-142;-128;-84
457122;1;1;0;421;-236;3901;-1316;-138;-147;-76
457132;1;1;0;421;-245;3893;-1339;-136;-145;-57
457142;1;1;0;421;-259;3882;-1361;-150;-131;-46
457152;1;1;0;421;-243;3876;-1353;-149;-116;-38
457162;1;1;0;421;-241;3864;-1351;-147;-111;-30
457172;1;1;0;421;-221;3856;-1324;-140;-101;-34
457182;1;1;0;421;-213;3859;-1345;-126;-93;-50
457192;1;1;0;421;-223;3865;-1340;-122;-87;-73
457202;1;1;0;421;-230;3850;-1336;-136;-85;-93
457212;1;1;0;421;-237;3864;-1336;-144;-85;-95
457222;1;1;0;421;-252;3888;-1336;-158;-78;-92
457232;1;1;0;421;-256;3904;-1362;-168;-59;-73
457242;1;1;0;421;-238;3890;-1334;-155;-49;-52
457252;1;1;0;421;-243;3879;-1327;-151;-42;-40
457262;1;1;0;421;-242;3867;-1323;-143;-48;-53
457272;1;1;0;421;-246;3869;-1301;-128;-66;-69
457282;1;1;0;421;-248;3881;-1288;-122;-84;-75
457292;1;1;0;421;-249;3891;-1301;-135;-93;-66
457302;1;1;0;421;-228;3893;-1311;-141;-107;-46
457312;1;1;0;421;-251;3890;-1306;-134;-116;-26
457322;1;1;0;421;-232;3881;-1299;-133;-112;-7
457332;1;1;0;421;-229;3882;-1323;-137;-114;-4
457342;1;1;0;421;-232;3872;-1334;-128;-120;-3
457352;1;1;0;421;-234;3868;-1337;-127;-117;-3
457362;1;1;0;422;-217;3856;-1332;-128;-112;-25
457372;1;1;0;422;-229;3867;-1345;-128;-104;-31
457382;1;1;0;422;-240;3862;-1339;-120;-97;-42
457392;1;1;0;422;-242;3876;-1330;-119;-101;-45
457402;1;1;0;422;-233;3896;-1311;-130;-101;-43
457412;1;1;0;422;-233;3896;-1316;-144;-104;-40
457422;1;1;0;422;-226;3896;-1336;-137;-110;-27
457432;1;1;0;422;-220;3891;-1337;-131;-106;-8
457442;1;1;0;422;-206;3884;-1332;-146;-88;-5
457452;1;1;0;422;-224;3864;-1346;-141;-75;-20
457462;1;1;0;422;-238;3849;-1357;-145;-70;-44
457472;1;1;0;422;-241;3850;-1336;-146;-76;-75
457482;1;1;0;422;-242;3869;-1320;-140;-92;-89
457492;1;1;0;422;-254;3886;-1325;-155;-93;-83
457502;1;1;0;422;-252;3896;-1317;-145;-96;-58
457512;1;1;0;422;-243;3892;-1332;-149;-85;-42
457522;1;1;0;422;-224;3874;-1322;-134;-76;-31
457532;1;1;0;422;-233;3876;-1295;-132;-72;-40
457542;1;1;0;422;-220;3877;-1310;-128;-79;-51
457552;1;1;0;422;-218;3877;-1334;-122;-88;-47
457562;1;1;0;422;-222;3873;-1344;-136;-96;-44
457572;1;1;0;422;-226;3876;-1346;-134;-99;-56
457582;1;1;0;422;-231;3864;-1340;-150;-114;-68
457592;1;1;0;422;-235;3869;-1335;-144;-124;-76
457602;1;1;0;422;-228;3887;-1319;-165;-126;-76
457612;1;1;0;422;-235;3862;-1322;-161;-135;-71
457622;1;1;0;422;-244;3864;-1311;-157;-150;-82
457632;1;1;0;422;-238;3880;-1320;-139;-174;-82
457642;1;1;0;422;-240;3883;-1309;-141;-167;-70
457652;1;1;0;422;-235;3887;-1303;-130;-152;-49
457662;1;1;0;422;-249;3891;-1326;-135;-139;-35
457672;1;1;0;422;-215;3887;-1332;-148;-123;-23
457682;1;1;0;422;-220;3880;-1347;-139;-134;-22
457692;1;1;0;422;-206;3884;-1354;-150;-130;-31
457702;1;1;0;422;-201;3872;-1353;-151;-117;-52
457712;1;1;0;422;-232;3866;-1351;-145;-105;-58
457722;1;1;0;422;-232;3877;-1357;-142;-80;-52
457732;1;1;0;422;-220;3888;-1339;-141;-61;-43
457742;1;1;0;422;-218;3881;-1331;-134;-66;-32
457752;1;1;0;422;-205;3869;-1319;-142;-69;-29
457762;1;1;0;422;-189;3853;-1291;-139;-76;-38
457772;1;1;0;422;-197;3862;-1319;-152;-78;-66
457782;1;1;0;422;-215;3876;-1343;-164;-83;-82
457792;1;1;0;422;-223;3891;-1348;-154;-83;-90
457802;1;1;0;422;-242;3887;-1334;-148;-71;-75
457812;1;1;0;422;-239;3880;-1317;-130;-67;-76
457822;1;1;0;422;-233;3881;-1325;-128;-71;-64
457832;1;1;0;422;-239;3876;-1320;-140;-77;-57
457842;1;1;0;422;-225;3887;-1293;-139;-89;-48
457852;1;1;0;422;-214;3887;-1312;-136;-105;-50
457862;1;1;0;423;-212;3870;-1311;-141;-126;-58
457872;1;1;0;423;-220;3880;-1324;-137;-130;-63
457882;1;1;0;423;-222;3883;-1341;-153;-128;-61
457892;1;1;0;423;-221;3878;-1339;-151;-118;-59
457902;1;1;0;423;-218;3865;-1347;-152;-104;-61
457912;1;1;0;423;-216;3860;-1345;-140;-96;-66
457922;1;1;0;423;-224;3855;-1328;-140;-112;-79
457932;1;1;0;423;-219;3860;-1327;-156;-116;-92
457942;1;1;0;423;-225;3888;-1332;-153;-125;-92
457952;1;1;0;423;-226;3888;-1333;-157;-125;-78
457962;1;1;0;423;-234;3883;-1325;-161;-121;-69
457972;1;1;0;423;-210;3880;-1326;-167;-100;-63
457982;1;1;0;423;-217;3881;-1327;-153;-91;-58
457992;1;1;0;423;-216;3885;-1326;-155;-78;-65
458002;1;1;0;423;-198;3868;-1319;-142;-72;-65
458012;1;1;0;423;-222;3859;-1322;-145;-69;-68
458022;1;1;0;423;-217;3860;-1333;-138;-77;-84
458032;1;1;0;423;-243;3867;-1320;-145;-80;-101
458042;1;1;0;423;-250;3875;-1316;-142;-98;-105
458052;1;1;0;423;-241;3885;-1320;-147;-104;-94
458062;1;1;0;423;-231;3894;-1308;-151;-104;-80
458072;1;1;0;423;-243;3895;-1324;-147;-100;-70
458082;1;1;0;423;-222;3871;-1325;-132;-94;-63
458092;1;1;0;423;-216;3870;-1337;-135;-91;-69
458102;1;1;0;423;-230;3864;-1329;-141;-86;-76
458112;1;1;0;423;-224;3869;-1332;-139;-89;-85
458122;1;1;0;423;-215;3875;-1336;-133;-99;-102
458132;1;1;0;423;-236;3871;-1335;-145;-99;-116
458142;1;1;0;423;-250;3873;-1310;-145;-107;-121
458152;1;1;0;423;-243;3882;-1308;-157;-115;-124
458162;1;1;0;423;-241;3882;-1322;-155;-124;-116
458172;1;1;0;423;-257;3872;-1322;-156;-114;-101
458182;1;1;0;423;-250;3869;-1325;-144;-113;-93
458192;1;1;0;423;-245;3879;-1317;-148;-110;-93
458202;1;1;0;423;-247;3881;-1334;-150;-108;-94
458212;1;1;0;423;-224;3874;-1345;-157;-112;-96
458222;1;1;0;423;-243;3880;-1351;-161;-110;-104
458232;1;1;0;423;-235;3870;-1337;-157;-104;-109
458242;1;1;0;423;-241;3862;-1335;-158;-98;-119
458252;1;1;0;423;-261;3875;-1333;-159;-85;-127
458262;1;1;0;423;-253;3888;-1319;-163;-86;-120
458272;1;1;0;423;-243;3896;-1326;-168;-68;-104
458282;1;1;0;423;-250;3895;-1337;-159;-68;-91
458292;1;1;0;423;-237;3883;-1329;-170;-69;-83
458302;1;1;0;423;-227;3875;-1339;-156;-74;-82
458312;1;1;0;423;-217;3859;-1322;-163;-73;-83
458322;1;1;0;423;-234;3874;-1316;-163;-63;-93
458332;1;1;0;423;-230;3866;-1309;-155;-57;-95
458342;1;1;0;423;-223;3868;-1328;-147;-55;-98
458352;1;1;0;423;-228;3879;-1326;-146;-77;-93
458362;1;1;0;424;-230;3872;-1331;-138;-89;-92
458372;1;1;0;424;-230;3877;-1307;-137;-98;-86
458382;1;1;0;424;-234;3879;-1317;-145;-99;-95
458392;1;1;0;424;-241;3874;-1325;-150;-102;-102
458402;1;1;0;424;-250;3873;-1320;-150;-109;-115
458412;1;1;0;424;-254;3885;-1320;-145;-108;-114
458422;1;1;0;424;-253;3873;-1329;-145;-106;-97
458432;1;1;0;424;-240;3874;-1348;-153;-91;-86
458442;1;1;0;424;-251;3866;-1338;-157;-71;-80
458452;1;1;0;424;-233;3874;-1347;-160;-66;-84
458462;1;1;0;424;-236;3875;-1337;-141;-68;-89
458472;1;1;0;424;-243;3872;-1308;-137;-63;-96
458482;1;1;0;424;-245;3879;-1325;-142;-61;-97
458492;1;1;0;424;-230;3869;-1325;-138;-60;-85
458502;1;1;0;424;-236;3898;-1321;-149;-69;-88
458512;1;1;0;424;-224;3883;-1325;-156;-84;-97
458522;1;1;0;424;-223;3885;-1344;-152;-98;-105
458532;1;1;0;424;-225;3879;-1305;-162;-89;-107
458542;1;1;0;424;-242;3874;-1306;-152;-93;-103
458552;1;1;0;424;-245;3869;-1331;-161;-87;-94
458562;1;1;0;424;-253;3859;-1338;-159;-75;-93
458572;1;1;0;424;-256;3853;-1314;-158;-79;-102
458582;1;1;0;424;-240;3868;-1320;-159;-72;-108
458592;1;1;0;424;-243;3865;-1311;-151;-72;-110
458602;1;1;0;424;-240;3879;-1311;-153;-73;-101
458612;1;1;0;424;-250;3887;-1321;-147;-80;-90
458622;1;1;0;424;-252;3876;-1300;-149;-83;-79
458632;1;1;0;424;-244;3883;-1326;-148;-86;-82
458642;1;1;0;424;-252;3879;-1312;-140;-97;-88
458652;1;1;0;424;-258;3873;-1312;-150;-99;-87
458662;1;1;0;424;-245;3877;-1294;-146;-100;-87
458672;1;1;0;424;-245;3884;-1321;-142;-104;-90
458682;1;1;0;424;-246;3896;-1323;-134;-110;-81
458692;1;1;0;424;-232;3893;-1339;-133;-112;-64
458702;1;1;0;424;-223;3891;-1331;-137;-113;-58
458712;1;1;0;424;-224;3863;-1340;-138;-109;-53
458722;1;1;0;424;-240;3833;-1339;-149;-110;-70
458732;1;1;0;424;-237;3847;-1325;-166;-110;-104
458742;1;1;0;424;-248;3839;-1338;-169;-108;-129
458752;1;1;0;424;-254;3877;-1342;-164;-114;-141
458762;1;1;0;424;-259;3873;-1319;-175;-101;-130
458772;1;1;0;424;-256;3892;-1321;-178;-95;-114
458782;1;1;0;424;-246;3893;-1333;-164;-87;-105
458792;1;1;0;424;-250;3882;-1319;-153;-82;-101
458802;1;1;0;424;-263;3860;-1313;-154;-83;-100
458812;1;1;0;424;-260;3883;-1310;-152;-92;-101
458822;1;1;0;424;-260;3883;-1304;-152;-104;-102
458832;1;1;0;424;-256;3881;-1303;-162;-105;-95
458842;1;1;0;424;-245;3890;-1317;-151;-104;-84
458852;1;1;0;424;-245;3881;-1317;-151;-108;-68
458862;1;1;0;425;-256;3876;-1320;-147;-106;-57
458872;1;1;0;425;-247;3883;-1332;-139;-107;-58
458882;1;1;0;425;-241;3870;-1336;-133;-112;-69
458892;1;1;0;425;-254;3866;-1330;-136;-107;-74
458902;1;1;0;425;-240;3858;-1307;-137;-108;-78
458912;1;1;0;425;-234;3856;-1347;-141;-101;-87
458922;1;1;0;425;-249;3865;-1346;-162;-103;-91
458932;1;1;0;425;-246;3874;-1347;-159;-104;-96
458942;1;1;0;425;-243;3867;-1323;-166;-110;-110
458952;1;1;0;425;-249;3887;-1336;-166;-113;-118
458962;1;1;0;425;-243;3877;-1335;-163;-107;-107
458972;1;1;0;425;-274;3892;-1331;-152;-83;-86
458982;1;1;0;425;-260;3873;-1324;-150;-63;-74
458992;1;1;0;425;-250;3866;-1330;-143;-60;-72
459002;1;1;0;425;-244;3871;-1327;-135;-78;-82
459012;1;1;0;425;-245;3865;-1327;-147;-94;-96
459022;1;1;0;425;-257;3871;-1322;-154;-89;-94
459032;1;1;0;425;-255;3879;-1344;-147;-75;-99
459042;1;1;0;425;-258;3875;-1346;-148;-60;-91
459052;1;1;0;425;-262;3886;-1324;-150;-60;-92
459062;1;1;0;425;-258;3871;-1340;-145;-69;-87
459072;1;1;0;425;-265;3859;-1328;-152;-74;-83
459082;1;1;0;425;-256;3864;-1298;-144;-79;-88
459092;1;1;0;425;-245;3865;-1315;-145;-83;-93
459102;1;1;0;425;-278;3874;-1318;-146;-90;-96
459112;1;1;0;425;-266;3879;-1318;-145;-87;-81
459122;1;1;0;425;-268;3868;-1312;-137;-77;-78
459132;1;1;0;425;-257;3867;-1315;-141;-74;-74
459142;1;1;0;425;-252;3884;-1348;-154;-67;-77
459152;1;1;0;425;-250;3895;-1331;-150;-67;-76
459162;1;1;0;425;-249;3879;-1346;-146;-66;-88
459172;1;1;0;425;-254;3870;-1335;-156;-67;-104
459182;1;1;0;425;-258;3874;-1312;-156;-69;-113
459192;1;1;0;425;-258;3877;-1309;-169;-71;-112
459202;1;1;0;425;-244;3884;-1312;-154;-73;-101
459212;1;1;0;425;-248;3889;-1316;-168;-72;-97
459222;1;1;0;425;-250;3884;-1316;-165;-85;-94
459232;1;1;0;425;-248;3881;-1329;-151;-93;-99
459242;1;1;0;425;-249;3877;-1320;-142;-93;-98
459252;1;1;0;425;-264;3881;-1321;-144;-86;-92
459262;1;1;0;425;-279;3883;-1322;-141;-79;-90
459272;1;1;0;425;-284;3881;-1309;-147;-86;-86
459282;1;1;0;425;-274;3886;-1296;-156;-87;-87
459292;1;1;0;425;-278;3882;-1297;-160;-94;-90
459302;1;1;0;425;-255;3873;-1323;-150;-96;-84
459312;1;1;0;425;-250;3883;-1324;-146;-97;-75
459322;1;1;0;425;-254;3875;-1323;-157;-92;-68
459332;1;1;0;425;-255;3875;-1296;-157;-100;-79
459342;1;1;0;425;-255;3878;-1307;-155;-93;-91
459352;1;1;0;425;-256;3876;-1320;-154;-100;-102
459362;1;1;0;426;-238;3870;-1323;-138;-106;-100
459372;1;1;0;426;-254;3875;-1328;-141;-106;-96
459382;1;1;0;426;-269;3879;-1311;-154;-113;-97
459392;1;1;0;426;-264;3875;-1329;-162;-104;-95
459402;1;1;0;426;-271;3867;-1316;-151;-106;-88
459412;1;1;0;426;-261;3885;-1336;-149;-98;-71
459422;1;1;0;426;-261;3878;-1313;-159;-95;-65
459432;1;1;0;426;-264;3869;-1306;-157;-96;-71
459442;1;1;0;426;-267;3879;-1308;-158;-99;-74
459452;1;1;0;426;-267;3870;-1334;-159;-94;-80
459462;1;1;0;426;-256;3894;-1328;-156;-101;-84
459472;1;1;0;426;-260;3876;-1307;-146;-107;-87
459482;1;1;0;426;-263;3882;-1308;-142;-99;-81
459492;1;1;0;426;-279;3875;-1317;-138;-100;-80
459502;1;1;0;426;-269;3875;-1318;-143;-104;-86
459512;1;1;0;426;-261;3875;-1308;-154;-103;-86
459522;1;1;0;426;-258;3880;-1345;-145;-102;-77
459532;1;1;0;426;-265;3881;-1354;-147;-97;-74
459542;1;1;0;426;-274;3883;-1327;-146;-99;-78
459552;1;1;0;426;-275;3868;-1326;-137;-91;-71
459562;1;1;0;426;-280;3881;-1309;-138;-90;-67
459572;1;1;0;426;-258;3869;-1313;-139;-102;-61
459582;1;1;0;426;-239;3865;-1340;-157;-111;-72
459592;1;1;0;426;-250;3864;-1328;-168;-124;-88
459602;1;1;0;426;-244;3872;-1346;-173;-130;-107
459612;1;1;0;426;-263;3873;-1327;-170;-123;-114
459622;1;1;0;426;-263;3880;-1331;-163;-106;-98
459632;1;1;0;426;-266;3879;-1333;-151;-88;-76
459642;1;1;0;426;-278;3880;-1336;-152;-81;-61
459652;1;1;0;426;-259;3868;-1313;-150;-89;-61
459662;1;1;0;426;-257;3873;-1312;-142;-107;-79
459672;1;1;0;426;-271;3878;-1308;-144;-105;-91
459682;1;1;0;426;-275;3895;-1313;-141;-89;-85
459692;1;1;0;426;-270;3888;-1337;-142;-74;-63
459702;1;1;0;426;-259;3892;-1335;-146;-56;-49
459712;1;1;0;426;-260;3880;-1341;-147;-49;-45
459722;1;1;0;426;-241;3885;-1332;-143;-43;-54
459732;1;1;0;426;-259;3853;-1310;-140;-40;-68
459742;1;1;0;426;-273;3865;-1307;-130;-61;-85
459752;1;1;0;426;-265;3887;-1289;-126;-74;-95
459762;1;1;0;426;-289;3889;-1277;-138;-89;-91
459772;1;1;0;426;-279;3878;-1284;-132;-101;-71
459782;1;1;0;426;-264;3897;-1298;-150;-104;-51
459792;1;1;0;426;-273;3867;-1310;-164;-113;-46
459802;1;1;0;426;-273;3874;-1326;-159;-117;-43
459812;1;1;0;426;-262;3872;-1321;-151;-109;-53
459822;1;1;0;426;-275;3876;-1332;-140;-108;-66
459832;1;1;0;426;-279;3875;-1325;-145;-105;-68
459842;1;1;0;426;-279;3872;-1307;-137;-113;-66
459852;1;1;0;426;-260;3894;-1316;-142;-110;-50
459862;1;1;0;427;-268;3878;-1324;-141;-116;-40
459872;1;1;0;427;-252;3875;-1316;-144;-122;-33
459882;1;1;0;427;-256;3874;-1321;-149;-131;-38
459892;1;1;0;427;-262;3879;-1322;-160;-127;-44
459902;1;1;0;427;-262;3862;-1327;-157;-118;-46
459912;1;1;0;427;-271;3860;-1332;-149;-108;-43
459922;1;1;0;427;-276;3873;-1332;-145;-105;-39
459932;1;1;0;427;-286;3880;-1330;-140;-103;-47
459942;1;1;0;427;-270;3874;-1334;-136;-103;-45
459952;1;1;0;427;-271;3881;-1305;-143;-108;-48
459962;1;1;0;427;-277;3904;-1308;-144;-115;-40
459972;1;1;0;427;-275;3892;-1297;-151;-122;-31
459982;1;1;0;427;-267;3896;-1317;-154;-129;-18
459992;1;1;0;427;-248;3883;-1313;-155;-130;-17
460002;1;1;0;427;-257;3886;-1334;-144;-136;-13
460012;1;1;0;427;-267;3858;-1336;-153;-121;-28
460022;1;1;0;427;-255;3855;-1324;-147;-110;-38
460032;1;1;0;427;-261;3858;-1320;-146;-105;-55
460042;1;1;0;427;-269;3859;-1338;-149;-110;-57
460052;1;1;0;427;-260;3882;-1318;-158;-99;-59
460062;1;1;0;427;-260;3890;-1331;-150;-97;-47
460072;1;1;0;427;-271;3881;-1327;-148;-92;-33
460082;1;1;0;427;-265;3879;-1319;-152;-90;-33
460092;1;1;0;427;-268;3888;-1317;-141;-113;-30
460102;1;1;0;427;-266;3871;-1302;-147;-118;-42
460112;1;1;0;427;-268;3892;-1307;-147;-120;-39
460122;1;1;0;427;-273;3877;-1318;-147;-117;-34
460132;1;1;0;427;-275;3881;-1329;-135;-110;-28
460142;1;1;0;427;-260;3876;-1336;-135;-94;-25
460152;1;1;0;427;-250;3873;-1335;-137;-84;-26
460162;1;1;0;427;-260;3876;-1329;-129;-87;-23
460172;1;1;0;427;-257;3877;-1328;-144;-86;-28
460182;1;1;0;427;-246;3882;-1319;-142;-89;-35
460192;1;1;0;427;-254;3887;-1325;-137;-90;-32
460202;1;1;0;427;-252;3875;-1333;-132;-99;-29
460212;1;1;0;427;-247;3887;-1330;-138;-93;-28
460222;1;1;0;427;-252;3874;-1309;-132;-96;-38
460232;1;1;0;427;-247;3868;-1316;-135;-103;-47
460242;1;1;0;427;-235;3873;-1314;-138;-99;-52
460252;1;1;0;427;-255;3875;-1321;-151;-97;-50
460262;1;1;0;427;-254;3882;-1335;-151;-110;-51
460272;1;1;0;427;-256;3877;-1319;-159;-128;-53
460282;1;1;0;427;-267;3884;-1305;-154;-142;-56
460292;1;1;0;427;-251;3884;-1302;-149;-146;-54
460302;1;1;0;427;-250;3880;-1292;-149;-128;-48
460312;1;1;0;427;-246;3880;-1302;-143;-103;-21
460322;1;1;0;427;-243;3872;-1329;-133;-93;-8
460332;1;1;0;427;-225;3866;-1314;-144;-93;-15
460342;1;1;0;427;-237;3868;-1335;-149;-93;-32
460352;1;1;0;427;-251;3877;-1332;-149;-92;-45
460362;1;1;0;428;-243;3881;-1341;-140;-80;-44
460372;1;1;0;428;-251;3888;-1335;-140;-73;-44
460382;1;1;0;428;-249;3888;-1338;-146;-76;-49
460392;1;1;0;428;-252;3889;-1324;-138;-86;-52
460402;1;1;0;428;-252;3877;-1315;-142;-100;-36
460412;1;1;0;428;-229;3874;-1325;-143;-105;-35
460422;1;1;0;428;-235;3878;-1309;-151;-105;-41
460432;1;1;0;428;-246;3882;-1316;-155;-105;-43
460442;1;1;0;428;-249;3884;-1313;-145;-101;-41
460452;1;1;0;428;-248;3880;-1323;-143;-81;-31
460462;1;1;0;428;-243;3887;-1325;-148;-75;-34
460472;1;1;0;428;-248;3882;-1326;-137;-61;-31
460482;1;1;0;428;-241;3876;-1330;-140;-64;-50
460492;1;1;0;428;-253;3873;-1314;-138;-79;-68
460502;1;1;0;428;-253;3872;-1327;-133;-108;-81
460512;1;1;0;428;-255;3893;-1332;-133;-122;-71
460522;1;1;0;428;-251;3892;-1332;-146;-120;-50
460532;1;1;0;428;-247;3887;-1323;-143;-114;-27
460542;1;1;0;428;-230;3866;-1330;-144;-102;-16
460552;1;1;0;428;-242;3855;-1328;-141;-107;-26
460562;1;1;0;428;-229;3855;-1329;-151;-102;-41
460572;1;1;0;428;-226;3863;-1332;-151;-103;-59
460582;1;1;0;428;-235;3865;-1314;-138;-101;-66
460592;1;1;0;428;-234;3877;-1334;-140;-94;-72
460602;1;1;0;428;-247;3874;-1332;-134;-85;-75
460612;1;1;0;428;-242;3866;-1320;-134;-67;-78
460622;1;1;0;428;-248;3878;-1318;-135;-71;-81
460632;1;1;0;428;-238;3880;-1328;-143;-68;-83
460642;1;1;0;428;-238;3882;-1329;-152;-76;-83
460652;1;1;0;428;-248;3874;-1306;-147;-87;-79
460662;1;1;0;428;-242;3886;-1306;-151;-97;-86
460672;1;1;0;428;-246;3869;-1305;-149;-103;-87
460682;1;1;0;428;-237;3882;-1333;-151;-100;-85
460692;1;1;0;428;-232;3883;-1328;-149;-97;-85
460702;1;1;0;428;-248;3873;-1345;-154;-91;-92
460712;1;1;0;428;-249;3877;-1339;-154;-88;-102
460722;1;1;0;428;-246;3877;-1326;-152;-94;-96
460732;1;1;0;428;-249;3882;-1317;-150;-86;-87
460742;1;1;0;428;-245;3874;-1321;-154;-90;-83
460752;1;1;0;428;-243;3888;-1322;-152;-88;-78
460762;1;1;0;428;-240;3884;-1314;-154;-89;-75
460772;1;1;0;428;-236;3890;-1322;-161;-88;-78
460782;1;1;0;428;-238;3877;-1334;-149;-86;-83
460792;1;1;0;428;-234;3879;-1328;-146;-93;-87
460802;1;1;0;428;-248;3858;-1330;-141;-97;-85
460812;1;1;0;428;-256;3879;-1307;-149;-102;-81
460822;1;1;0;428;-247;3881;-1321;-151;-105;-82
460832;1;1;0;428;-245;3878;-1295;-152;-113;-81
460842;1;1;0;428;-250;3889;-1295;-141;-113;-65
460852;1;1;0;428;-253;3868;-1316;-149;-101;-61
460862;1;1;0;429;-251;3869;-1331;-142;-105;-55
460872;1;1;0;429;-242;3873;-1334;-143;-108;-56
460882;1;1;0;429;-237;3880;-1361;-152;-101;-62
460892;1;1;0;429;-236;3859;-1332;-151;-93;-64
460902;1;1;0;429;-231;3860;-1331;-142;-98;-81
460912;1;1;0;429;-256;3860;-1300;-139;-114;-91
460922;1;1;0;429;-241;3883;-1289;-141;-118;-94
460932;1;1;0;429;-241;3883;-1311;-145;-121;-83
460942;1;1;0;429;-245;3880;-1330;-148;-104;-71
460952;1;1;0;429;-237;3875;-1345;-147;-104;-66
460962;1;1;0;429;-231;3866;-1337;-155;-104;-77
460972;1;1;0;429;-231;3861;-1348;-162;-85;-82
460982;1;1;0;429;-242;3870;-1346;-160;-79;-91
460992;1;1;0;429;-246;3879;-1314;-150;-60;-86
461002;1;1;0;429;-244;3869;-1318;-150;-47;-87
461012;1;1;0;429;-253;3873;-1313;-134;-48;-86
461022;1;1;0;429;-242;3893;-1304;-140;-62;-95
461032;1;1;0;429;-259;3888;-1313;-137;-75;-96
461042;1;1;0;429;-248;3881;-1316;-146;-66;-92
461052;1;1;0;429;-252;3888;-1330;-151;-62;-83
461062;1;1;0;429;-255;3876;-1314;-146;-69;-81
461072;1;1;0;429;-255;3871;-1323;-150;-77;-81
461082;1;1;0;429;-247;3872;-1311;-143;-84;-82
461092;1;1;0;429;-252;3866;-1319;-138;-82;-82
461102;1;1;0;429;-245;3872;-1327;-134;-80;-84
461112;1;1;0;429;-228;3870;-1339;-136;-82;-85
461122;1;1;0;429;-244;3886;-1342;-135;-75;-92
461132;1;1;0;429;-262;3876;-1333;-129;-71;-86
461142;1;1;0;429;-248;3882;-1327;-135;-60;-72
461152;1;1;0;429;-251;3867;-1331;-138;-44;-67
461162;1;1;0;429;-249;3866;-1318;-135;-40;-85
461172;1;1;0;429;-237;3868;-1326;-149;-43;-110
461182;1;1;0;429;-260;3867;-1337;-153;-44;-141
461192;1;1;0;429;-257;3882;-1330;-160;-43;-138
461202;1;1;0;429;-262;3884;-1332;-154;-36;-116
461212;1;1;0;429;-253;3894;-1318;-153;-22;-101
461222;1;1;0;429;-260;3873;-1295;-138;-25;-95
461232;1;1;0;429;-258;3872;-1308;-137;-31;-98
461242;1;1;0;429;-255;3879;-1319;-141;-52;-105
461252;1;1;0;429;-252;3884;-1315;-143;-69;-107
461262;1;1;0;429;-252;3892;-1306;-143;-73;-104
461272;1;1;0;429;-257;3895;-1314;-145;-75;-96
461282;1;1;0;429;-263;3876;-1321;-145;-72;-89
461292;1;1;0;429;-249;3882;-1323;-148;-66;-76
461302;1;1;0;429;-248;3866;-1340;-141;-65;-79
461312;1;1;0;429;-254;3874;-1322;-132;-77;-86
461322;1;1;0;429;-263;3864;-1306;-136;-78;-95
461332;1;1;0;429;-273;3881;-1321;-143;-85;-100
461342;1;1;0;429;-290;3886;-1313;-138;-90;-100
461352;1;1;0;429;-275;3891;-1316;-143;-86;-89
461362;1;1;0;430;-260;3902;-1319;-141;-80;-69
461372;1;1;0;430;-270;3889;-1317;-129;-76;-63
461382;1;1;0;430;-255;3863;-1329;-137;-71;-64
461392;1;1;0;430;-270;3868;-1306;-144;-73;-65
461402;1;1;0;430;-251;3868;-1322;-137;-81;-64
461412;1;1;0;430;-238;3875;-1319;-133;-86;-62
461422;1;1;0;430;-234;3864;-1326;-133;-91;-60
461432;1;1;0;430;-247;3869;-1329;-148;-92;-66
461442;1;1;0;430;-249;3876;-1334;-155;-97;-79
461452;1;1;0;430;-239;3876;-1345;-170;-109;-84
461462;1;1;0;430;-258;3867;-1338;-165;-108;-79
461472;1;1;0;430;-256;3877;-1335;-160;-96;-84
461482;1;1;0;430;-269;3852;-1320;-154;-96;-98
461492;1;1;0;430;-272;3879;-1320;-157;-103;-109
461502;1;1;0;430;-259;3899;-1314;-141;-103;-105
461512;1;1;0;430;-278;3904;-1330;-139;-90;-83
461522;1;1;0;430;-267;3898;-1319;-129;-78;-65
461532;1;1;0;430;-266;3889;-1320;-133;-79;-54
461542;1;1;0;430;-277;3868;-1310;-133;-85;-68
461552;1;1;0;430;-259;3877;-1300;-138;-98;-74
461562;1;1;0;430;-250;3876;-1325;-135;-111;-78
461572;1;1;0;430;-254;3882;-1333;-141;-120;-79
461582;1;1;0;430;-262;3885;-1329;-142;-122;-77
461592;1;1;0;430;-257;3884;-1328;-139;-121;-71
461602;1;1;0;430;-255;3886;-1326;-134;-105;-60
461612;1;1;0;430;-241;3882;-1318;-141;-89;-61
461622;1;1;0;430;-246;3862;-1339;-144;-80;-65
461632;1;1;0;430;-246;3856;-1337;-146;-85;-84
461642;1;1;0;430;-251;3858;-1326;-169;-95;-111
461652;1;1;0;430;-246;3869;-1342;-173;-91;-122
461662;1;1;0;430;-250;3880;-1334;-171;-78;-118
461672;1;1;0;430;-268;3881;-1328;-153;-62;-106
461682;1;1;0;430;-263;3879;-1320;-159;-39;-89
461692;1;1;0;430;-261;3875;-1324;-164;-39;-82
461702;1;1;0;430;-262;3872;-1319;-150;-51;-96
461712;1;1;0;430;-265;3880;-1324;-144;-73;-109
461722;1;1;0;430;-279;3890;-1308;-153;-81;-107
461732;1;1;0;430;-277;3900;-1304;-144;-83;-99
461742;1;1;0;430;-279;3906;-1316;-147;-74;-80
461752;1;1;0;430;-264;3891;-1289;-143;-81;-63
461762;1;1;0;430;-256;3874;-1308;-138;-90;-53
461772;1;1;0;430;-251;3883;-1304;-136;-100;-53
461782;1;1;0;430;-246;3868;-1331;-132;-106;-52
461792;1;1;0;430;-246;3862;-1350;-134;-108;-52
461802;1;1;0;430;-234;3875;-1327;-143;-93;-62
461812;1;1;0;430;-241;3876;-1331;-143;-86;-64
461822;1;1;0;430;-262;3851;-1338;-135;-67;-62
461832;1;1;0;430;-256;3856;-1339;-144;-49;-72
461842;1;1;0;430;-251;3861;-1323;-136;-47;-82
461852;1;1;0;430;-275;3859;-1328;-154;-42;-109
461862;1;1;0;431;-259;3875;-1325;-157;-39;-113
461872;1;1;0;431;-268;3884;-1320;-157;-44;-121
461882;1;1;0;431;-280;3884;-1322;-167;-47;-106
461892;1;1;0;431;-270;3895;-1310;-166;-41;-85
461902;1;1;0;431;-256;3878;-1301;-153;-37;-64
461912;1;1;0;431;-254;3872;-1309;-146;-45;-67
461922;1;1;0;431;-250;3870;-1313;-140;-56;-78
461932;1;1;0;431;-258;3864;-1309;-140;-69;-104
461942;1;1;0;431;-277;3859;-1313;-143;-78;-105
461952;1;1;0;431;-270;3871;-1301;-147;-94;-106
461962;1;1;0;431;-262;3888;-1317;-139;-104;-87
461972;1;1;0;431;-265;3886;-1315;-149;-108;-70
461982;1;1;0;431;-255;3885;-1332;-143;-113;-58
461992;1;1;0;431;-252;3873;-1323;-146;-119;-64
462002;1;1;0;431;-254;3876;-1344;-146;-117;-72
462012;1;1;0;431;-269;3854;-1343;-146;-107;-81
462022;1;1;0;431;-256;3856;-1344;-143;-104;-90
462032;1;1;0;431;-273;3875;-1338;-155;-97;-94
462042;1;1;0;431;-266;3870;-1339;-156;-95;-91
462052;1;1;0;431;-266;3891;-1332;-153;-90;-75
462062;1;1;0;431;-264;3891;-1318;-148;-87;-55
462072;1;1;0;431;-257;3885;-1336;-148;-88;-41
462082;1;1;0;431;-249;3889;-1324;-138;-92;-36
462092;1;1;0;431;-250;3872;-1330;-146;-81;-43
462102;1;1;0;431;-246;3848;-1323;-150;-87;-59
462112;1;1;0;431;-236;3864;-1339;-149;-94;-76
462122;1;1;0;431;-263;3853;-1320;-151;-106;-86
462132;1;1;0;431;-257;3867;-1330;-153;-117;-83
462142;1;1;0;431;-244;3888;-1326;-155;-117;-77
462152;1;1;0;431;-257;3884;-1325;-154;-127;-73
462162;1;1;0;431;-271;3883;-1344;-151;-135;-73
462172;1;1;0;431;-262;3875;-1319;-159;-137;-68
462182;1;1;0;431;-267;3871;-1339;-166;-138;-68
462192;1;1;0;431;-275;3881;-1327;-165;-126;-66
462202;1;1;0;431;-258;3870;-1326;-154;-109;-54
462212;1;1;0;431;-270;3873;-1324;-145;-99;-50
462222;1;1;0;431;-259;3868;-1343;-157;-87;-56
462232;1;1;0;431;-244;3880;-1330;-161;-89;-67
462242;1;1;0;431;-236;3865;-1326;-153;-93;-71
462252;1;1;0;431;-259;3880;-1336;-159;-94;-77
462262;1;1;0;431;-267;3873;-1313;-157;-96;-89
462272;1;1;0;431;-280;3871;-1302;-146;-105;-99
462282;1;1;0;431;-271;3883;-1317;-150;-113;-97
462292;1;1;0;431;-270;3888;-1301;-152;-120;-85
462302;1;1;0;431;-264;3893;-1306;-158;-126;-62
462312;1;1;0;431;-249;3898;-1322;-162;-146;-53
462322;1;1;0;431;-244;3887;-1296;-150;-162;-50
462332;1;1;0;431;-254;3879;-1313;-148;-165;-51
462342;1;1;0;431;-244;3867;-1316;-143;-158;-47
462352;1;1;0;431;-250;3862;-1329;-148;-144;-43
462362;1;1;0;432;-257;3857;-1324;-151;-119;-40
462372;1;1;0;432;-258;3856;-1313;-150;-122;-52
462382;1;1;0;432;-268;3864;-1340;-150;-138;-72
462392;1;1;0;432;-280;3875;-1339;-156;-137;-85
462402;1;1;0;432;-288;3882;-1330;-147;-130;-71
462412;1;1;0;432;-274;3891;-1324;-148;-110;-50
462422;1;1;0;432;-279;3904;-1329;-151;-88;-26
462432;1;1;0;432;-262;3894;-1335;-150;-69;-10
462442;1;1;0;432;-238;3878;-1327;-154;-64;-17
462452;1;1;0;432;-256;3869;-1308;-137;-78;-39
462462;1;1;0;432;-243;3866;-1293;-125;-86;-59
462472;1;1;0;432;-261;3875;-1287;-123;-111;-74
462482;1;1;0;432;-278;3875;-1301;-129;-136;-71
462492;1;1;0;432;-275;3883;-1287;-136;-152;-51
462502;1;1;0;432;-272;3899;-1291;-132;-165;-26
462512;1;1;0;432;-273;3900;-1313;-148;-180;4
462522;1;1;0;432;-253;3893;-1324;-150;-176;26
462532;1;1;0;432;-246;3888;-1337;-152;-172;30
462542;1;1;0;432;-238;3865;-1354;-144;-167;13
462552;1;1;0;432;-236;3855;-1349;-150;-148;-15
462562;1;1;0;432;-241;3847;-1354;-149;-134;-44
462572;1;1;0;432;-251;3837;-1342;-149;-119;-76
462582;1;1;0;432;-251;3833;-1325;-157;-101;-91
462592;1;1;0;432;-247;3864;-1340;-158;-100;-103
462602;1;1;0;432;-276;3887;-1342;-155;-88;-100
462612;1;1;0;432;-277;3899;-1341;-159;-86;-90
462622;1;1;0;432;-274;3889;-1349;-163;-81;-77
462632;1;1;0;432;-264;3878;-1310;-157;-71;-60
462642;1;1;0;432;-264;3895;-1304;-147;-63;-48
462652;1;1;0;432;-251;3881;-1297;-148;-70;-43
462662;1;1;0;432;-257;3870;-1286;-151;-79;-44
462672;1;1;0;432;-254;3871;-1284;-146;-107;-48
462682;1;1;0;432;-244;3883;-1301;-158;-134;-51
462692;1;1;0;432;-255;3889;-1309;-141;-152;-54
462702;1;1;0;432;-265;3892;-1305;-145;-156;-57
462712;1;1;0;432;-252;3881;-1297;-144;-149;-54
462722;1;1;0;432;-257;3895;-1317;-142;-145;-41
462732;1;1;0;432;-261;3881;-1342;-141;-144;-34
462742;1;1;0;432;-242;3880;-1313;-128;-148;-36
462752;1;1;0;432;-256;3873;-1331;-152;-142;-36
462762;1;1;0;432;-250;3865;-1308;-153;-144;-42
462772;1;1;0;432;-258;3857;-1331;-154;-145;-56
462782;1;1;0;432;-259;3856;-1332;-160;-138;-73
462792;1;1;0;432;-239;3851;-1345;-154;-129;-86
462802;1;1;0;432;-250;3871;-1332;-143;-127;-91
462812;1;1;0;432;-266;3875;-1346;-153;-125;-87
462822;1;1;0;432;-259;3880;-1324;-149;-125;-80
462832;1;1;0;432;-258;3879;-1315;-151;-124;-80
462842;1;1;0;432;-269;3879;-1302;-145;-113;-71
462852;1;1;0;432;-270;3873;-1294;-138;-121;-74
462862;1;1;0;433;-266;3890;-1313;-153;-116;-64
462872;1;1;0;433;-279;3878;-1317;-147;-127;-64
462882;1;1;0;433;-265;3880;-1322;-143;-136;-55
462892;1;1;0;433;-254;3876;-1323;-132;-143;-44
462902;1;1;0;433;-262;3876;-1326;-123;-143;-48
462912;1;1;0;433;-248;3868;-1343;-122;-139;-50
462922;1;1;0;433;-244;3870;-1349;-126;-146;-53
462932;1;1;0;433;-246;3866;-1338;-129;-155;-64
462942;1;1;0;433;-249;3869;-1310;-131;-158;-81
462952;1;1;0;433;-247;3869;-1307;-124;-164;-89
462962;1;1;0;433;-258;3870;-1311;-143;-165;-91
462972;1;1;0;433;-252;3883;-1321;-144;-171;-82
462982;1;1;0;433;-222;3881;-1356;-155;-153;-73
462992;1;1;0;433;-225;3863;-1348;-161;-146;-72
463002;1;1;0;433;-230;3851;-1360;-156;-143;-85
463012;1;1;0;433;-230;3843;-1339;-166;-135;-111
463022;1;1;0;433;-249;3833;-1342;-171;-141;-137
463032;1;1;0;433;-261;3854;-1338;-181;-128;-158
463042;1;1;0;433;-259;3882;-1333;-185;-113;-163
463052;1;1;0;433;-268;3878;-1330;-173;-98;-152
463062;1;1;0;433;-276;3880;-1330;-174;-92;-141
463072;1;1;0;433;-281;3883;-1315;-180;-87;-138
463082;1;1;0;433;-276;3893;-1321;-168;-78;-135
463092;1;1;0;433;-275;3882;-1325;-163;-62;-128
463102;1;1;0;433;-273;3885;-1302;-147;-66;-131
463112;1;1;0;433;-268;3879;-1317;-156;-71;-139
463122;1;1;0;433;-270;3870;-1290;-155;-82;-143
463132;1;1;0;433;-257;3883;-1289;-156;-101;-139
463142;1;1;0;433;-277;3873;-1302;-154;-111;-140
463152;1;1;0;433;-269;3871;-1316;-161;-111;-135
463162;1;1;0;433;-282;3875;-1329;-156;-117;-126
463172;1;1;0;433;-272;3879;-1304;-158;-118;-116
463182;1;1;0;433;-277;3885;-1301;-154;-104;-98
463192;1;1;0;433;-267;3893;-1332;-150;-89;-83
463202;1;1;0;433;-253;3868;-1335;-147;-80;-77
463212;1;1;0;433;-245;3866;-1326;-154;-73;-93
463222;1;1;0;433;-252;3860;-1318;-152;-69;-118
463232;1;1;0;433;-257;3867;-1327;-160;-72;-137
463242;1;1;0;433;-259;3892;-1317;-165;-69;-144
463252;1;1;0;433;-256;3899;-1325;-173;-67;-142
463262;1;1;0;433;-262;3888;-1322;-181;-56;-121
463272;1;1;0;433;-284;3883;-1325;-158;-48;-104
463282;1;1;0;433;-259;3874;-1287;-159;-42;-100
463292;1;1;0;433;-263;3878;-1306;-141;-41;-118
463302;1;1;0;433;-269;3870;-1306;-139;-49;-122
463312;1;1;0;433;-271;3865;-1319;-154;-39;-126
463322;1;1;0;433;-263;3888;-1316;-159;-48;-132
463332;1;1;0;433;-279;3886;-1319;-168;-47;-130
463342;1;1;0;433;-269;3881;-1316;-175;-32;-134
463352;1;1;0;433;-274;3889;-1305;-169;-25;-135
463362;1;1;0;434;-287;3881;-1306;-155;-20;-142
463372;1;1;0;434;-278;3897;-1307;-143;-22;-140
463382;1;1;0;434;-283;3882;-1301;-146;-18;-135
463392;1;1;0;434;-294;3889;-1279;-146;-21;-128
463402;1;1;0;434;-287;3885;-1282;-136;-37;-123
463412;1;1;0;434;-293;3884;-1288;-148;-39;-126
463422;1;1;0;434;-293;3876;-1287;-155;-49;-117
463432;1;1;0;434;-290;3880;-1300;-156;-55;-118
463442;1;1;0;434;-277;3885;-1311;-158;-54;-106
463452;1;1;0;434;-288;3870;-1291;-163;-54;-105
463462;1;1;0;434;-278;3872;-1305;-163;-51;-105
463472;1;1;0;434;-266;3874;-1313;-146;-49;-106
463482;1;1;0;434;-270;3881;-1316;-143;-46;-108
463492;1;1;0;434;-276;3873;-1306;-145;-35;-122
463502;1;1;0;434;-290;3872;-1315;-138;-35;-127
463512;1;1;0;434;-295;3866;-1285;-142;-39;-133
463522;1;1;0;434;-287;3877;-1307;-146;-44;-143
463532;1;1;0;434;-298;3883;-1310;-152;-46;-144
463542;1;1;0;434;-312;3882;-1330;-159;-40;-126
463552;1;1;0;434;-309;3879;-1326;-154;-32;-116
463562;1;1;0;434;-301;3871;-1312;-148;-19;-97
463572;1;1;0;434;-304;3865;-1316;-153;-4;-96
463582;1;1;0;434;-310;3852;-1309;-138;-8;-112
463592;1;1;0;434;-293;3856;-1320;-143;-11;-125
463602;1;1;0;434;-301;3871;-1321;-153;-12;-144
463612;1;1;0;434;-305;3879;-1327;-154;-16;-150
463622;1;1;0;434;-320;3881;-1327;-148;-13;-153
463632;1;1;0;434;-325;3877;-1302;-139;-25;-149
463642;1;1;0;434;-320;3878;-1286;-135;-32;-145
463652;1;1;0;434;-309;3875;-1289;-140;-40;-126
463662;1;1;0;434;-308;3889;-1293;-146;-52;-112
463672;1;1;0;434;-301;3892;-1316;-146;-79;-116
463682;1;1;0;434;-308;3883;-1311;-151;-104;-121
463692;1;1;0;434;-318;3865;-1307;-163;-114;-126
463702;1;1;0;434;-305;3869;-1310;-167;-123;-129
463712;1;1;0;434;-317;3862;-1297;-168;-119;-123
463722;1;1;0;434;-321;3873;-1326;-165;-102;-108
463732;1;1;0;434;-310;3877;-1332;-148;-96;-98
463742;1;1;0;434;-296;3887;-1314;-143;-86;-94
463752;1;1;0;434;-314;3896;-1355;-139;-83;-90
463762;1;1;0;434;-306;3894;-1353;-129;-79;-86
463772;1;1;0;434;-300;3890;-1324;-133;-59;-78
463782;1;1;0;434;-303;3871;-1311;-136;-36;-83
463792;1;1;0;434;-305;3854;-1312;-121;-35;-93
463802;1;1;0;434;-303;3871;-1314;-143;-56;-108
463812;1;1;0;434;-312;3870;-1310;-141;-78;-110
463822;1;1;0;434;-310;3868;-1326;-151;-89;-107
463832;1;1;0;434;-305;3867;-1318;-138;-99;-90
463842;1;1;0;434;-307;3863;-1323;-142;-98;-90
463852;1;1;0;434;-307;3859;-1323;-140;-107;-98
463862;1;1;0;435;-310;3863;-1338;-131;-109;-99
463872;1;1;0;435;-314;3873;-1328;-135;-100;-93
463882;1;1;0;435;-298;3869;-1333;-140;-92;-89
463892;1;1;0;435;-293;3879;-1320;-137;-95;-91
463902;1;1;0;435;-311;3863;-1335;-133;-97;-94
463912;1;1;0;435;-293;3872;-1323;-136;-85;-90
463922;1;1;0;435;-296;3878;-1329;-138;-73;-87
463932;1;1;0;435;-305;3873;-1349;-128;-64;-75
463942;1;1;0;435;-301;3874;-1329;-143;-47;-77
463952;1;1;0;435;-295;3873;-1337;-135;-53;-71
463962;1;1;0;435;-309;3869;-1333;-135;-55;-77
463972;1;1;0;435;-297;3871;-1325;-141;-69;-86
463982;1;1;0;435;-302;3877;-1313;-142;-79;-83
463992;1;1;0;435;-315;3873;-1317;-150;-87;-73
464002;1;1;0;435;-297;3877;-1308;-149;-84;-62
464012;1;1;0;435;-291;3874;-1327;-150;-82;-47
464022;1;1;0;435;-296;3861;-1321;-145;-72;-48
464032;1;1;0;435;-286;3847;-1331;-142;-74;-62
464042;1;1;0;435;-285;3863;-1324;-141;-80;-76
464052;1;1;0;435;-298;3876;-1316;-142;-77;-89
464062;1;1;0;435;-294;3887;-1315;-136;-81;-89
464072;1;1;0;435;-302;3881;-1318;-148;-75;-84
464082;1;1;0;435;-309;3866;-1322;-154;-73;-91
464092;1;1;0;435;-312;3872;-1335;-145;-86;-96
464102;1;1;0;435;-320;3880;-1303;-154;-85;-93
464112;1;1;0;435;-321;3878;-1322;-147;-87;-82
464122;1;1;0;435;-307;3879;-1317;-155;-89;-75
464132;1;1;0;435;-301;3883;-1312;-146;-88;-64
464142;1;1;0;435;-306;3877;-1327;-147;-90;-63
464152;1;1;0;435;-297;3868;-1308;-141;-85;-69
464162;1;1;0;435;-295;3869;-1325;-143;-81;-72
464172;1;1;0;435;-294;3877;-1329;-146;-81;-70
464182;1;1;0;435;-307;3873;-1318;-144;-87;-65
464192;1;1;0;435;-293;3869;-1311;-155;-87;-63
464202;1;1;0;435;-298;3871;-1313;-143;-101;-64
464212;1;1;0;435;-309;3881;-1303;-150;-107;-66
464222;1;1;0;435;-298;3874;-1312;-145;-111;-57
464232;1;1;0;435;-303;3872;-1297;-148;-105;-50
464242;1;1;0;435;-299;3881;-1311;-153;-92;-43
464252;1;1;0;435;-297;3891;-1326;-145;-95;-36
464262;1;1;0;435;-311;3874;-1344;-158;-92;-31
464272;1;1;0;435;-309;3873;-1313;-150;-90;-31
464282;1;1;0;435;-294;3872;-1299;-153;-98;-40
464292;1;1;0;435;-296;3863;-1307;-158;-109;-47
464302;1;1;0;435;-298;3864;-1319;-158;-114;-43
464312;1;1;0;435;-306;3883;-1334;-149;-111;-35
464322;1;1;0;435;-315;3883;-1311;-152;-111;-38
464332;1;1;0;435;-314;3880;-1320;-157;-107;-39
464342;1;1;0;435;-308;3876;-1325;-149;-106;-27
464352;1;1;0;435;-302;3872;-1327;-162;-100;-17
464362;1;1;0;436;-296;3878;-1303;-156;-110;-17
464372;1;1;0;436;-284;3875;-1309;-157;-135;-29
464382;1;1;0;436;-299;3874;-1304;-152;-161;-47
464392;1;1;0;436;-303;3864;-1308;-161;-164;-50
464402;1;1;0;436;-297;3877;-1293;-161;-149;-32
464412;1;1;0;436;-298;3875;-1332;-154;-131;-10
464422;1;1;0;436;-299;3873;-1316;-161;-118;3
464432;1;1;0;436;-293;3874;-1329;-160;-126;4
464442;1;1;0;436;-292;3880;-1324;-161;-134;-5
464452;1;1;0;436;-297;3876;-1314;-148;-133;-14
464462;1;1;0;436;-303;3892;-1321;-147;-117;-15
464472;1;1;0;436;-301;3875;-1323;-147;-101;-11
464482;1;1;0;436;-302;3879;-1331;-134;-103;-11
464492;1;1;0;436;-289;3878;-1308;-146;-98;-9
464502;1;1;0;436;-299;3886;-1299;-139;-102;-4
464512;1;1;0;436;-287;3874;-1312;-138;-102;5
464522;1;1;0;436;-276;3878;-1305;-146;-95;3
464532;1;1;0;436;-282;3869;-1312;-145;-97;-2
464542;1;1;0;436;-301;3869;-1316;-148;-96;-19
464552;1;1;0;436;-287;3866;-1293;-144;-94;-17
464562;1;1;0;436;-309;3861;-1282;-133;-86;-17
464572;1;1;0;436;-296;3872;-1314;-126;-89;-16
464582;1;1;0;436;-294;3891;-1310;-136;-93;-17
464592;1;1;0;436;-293;3883;-1317;-140;-99;-26
464602;1;1;0;436;-297;3889;-1319;-140;-115;-31
464612;1;1;0;436;-289;3903;-1299;-150;-126;-33
464622;1;1;0;436;-288;3874;-1341;-152;-129;-27
464632;1;1;0;436;-303;3869;-1307;-149;-129;-29
464642;1;1;0;436;-300;3866;-1290;-159;-136;-30
464652;1;1;0;436;-302;3860;-1318;-161;-136;-29
464662;1;1;0;436;-303;3879;-1301;-159;-140;-26
464672;1;1;0;436;-290;3886;-1305;-153;-151;-25
464682;1;1;0;436;-294;3867;-1311;-149;-148;-19
464692;1;1;0;436;-289;3884;-1309;-162;-148;-9
464702;1;1;0;436;-285;3876;-1308;-159;-140;2
464712;1;1;0;436;-293;3870;-1302;-149;-138;-5
464722;1;1;0;436;-287;3867;-1306;-155;-143;-20
464732;1;1;0;436;-279;3857;-1311;-155;-150;-39
464742;1;1;0;436;-297;3858;-1314;-162;-169;-50
464752;1;1;0;436;-297;3877;-1321;-156;-171;-49
464762;1;1;0;436;-284;3876;-1337;-152;-167;-38
464772;1;1;0;436;-287;3880;-1324;-153;-163;-36
464782;1;1;0;436;-278;3883;-1320;-152;-167;-33
464792;1;1;0;436;-266;3883;-1328;-142;-161;-36
464802;1;1;0;436;-259;3871;-1328;-143;-153;-45
464812;1;1;0;436;-270;3859;-1335;-143;-152;-59
464822;1;1;0;436;-263;3847;-1344;-156;-147;-71
464832;1;1;0;436;-275;3870;-1329;-149;-140;-78
464842;1;1;0;436;-282;3872;-1324;-147;-140;-86
464852;1;1;0;436;-285;3872;-1328;-145;-129;-101
464862;1;1;0;437;-295;3881;-1325;-150;-132;-92
464872;1;1;0;437;-297;3890;-1319;-146;-129;-76
464882;1;1;0;437;-279;3899;-1311;-148;-108;-55
464892;1;1;0;437;-265;3890;-1331;-146;-91;-44
464902;1;1;0;437;-281;3878;-1343;-146;-78;-44
464912;1;1;0;437;-269;3863;-1320;-141;-66;-54
464922;1;1;0;437;-296;3869;-1327;-146;-66;-71
464932;1;1;0;437;-296;3861;-1309;-145;-68;-72
464942;1;1;0;437;-279;3871;-1311;-136;-60;-58
464952;1;1;0;437;-280;3871;-1315;-119;-50;-45
464962;1;1;0;437;-284;3876;-1315;-127;-53;-50
464972;1;1;0;437;-273;3867;-1321;-138;-66;-59
464982;1;1;0;437;-276;3869;-1298;-146;-78;-48
464992;1;1;0;437;-275;3872;-1307;-154;-86;-58
465002;1;1;0;437;-284;3863;-1309;-144;-99;-72
465012;1;1;0;437;-306;3871;-1310;-142;-102;-82
465022;1;1;0;437;-305;3888;-1321;-146;-99;-87
465032;1;1;0;437;-268;3880;-1310;-145;-76;-59
465042;1;1;0;437;-265;3873;-1340;-142;-67;-50
465052;1;1;0;437;-262;3866;-1346;-146;-67;-51
465062;1;1;0;437;-246;3855;-1344;-155;-82;-70
465072;1;1;0;437;-254;3844;-1325;-164;-109;-89
465082;1;1;0;437;-276;3869;-1303;-164;-119;-96
465092;1;1;0;437;-281;3862;-1331;-173;-113;-96
465102;1;1;0;437;-299;3875;-1310;-162;-110;-92
465112;1;1;0;437;-307;3875;-1317;-148;-117;-84
465122;1;1;0;437;-303;3875;-1316;-131;-122;-87
465132;1;1;0;437;-311;3870;-1298;-112;-129;-93
465142;1;1;0;437;-328;3879;-1312;-97;-122;-88
465152;1;1;0;437;-315;3873;-1317;-94;-124;-78
465162;1;1;0;437;-315;3881;-1321;-109;-136;-66
465172;1;1;0;437;-316;3874;-1325;-134;-150;-66
465182;1;1;0;437;-306;3877;-1311;-130;-152;-62
465192;1;1;0;437;-304;3866;-1302;-118;-156;-69
465202;1;1;0;437;-321;3856;-1297;-113;-163;-80
465212;1;1;0;437;-336;3867;-1328;-107;-173;-82
465222;1;1;0;437;-348;3867;-1343;-101;-163;-82
465232;1;1;0;437;-349;3882;-1336;-94;-149;-81
465242;1;1;0;437;-333;3902;-1344;-87;-107;-74
465252;1;1;0;437;-320;3883;-1363;-70;-44;-79
465262;1;1;0;437;-361;3843;-1353;-71;5;-111
465272;1;1;0;437;-363;3829;-1352;-74;13;-166
465282;1;1;0;437;-359;3816;-1312;-87;2;-232
465292;1;1;0;437;-352;3832;-1286;-86;-50;-307
465302;1;1;0;437;-364;3849;-1286;-96;-90;-323
465312;1;1;0;437;-368;3881;-1277;-133;-110;-287
465322;1;1;0;437;-358;3916;-1297;-164;-133;-257
465332;1;1;0;437;-358;3913;-1285;-179;-162;-235
465342;1;1;0;437;-348;3904;-1279;-202;-188;-212
465352;1;1;0;437;-348;3895;-1292;-202;-222;-211
465362;1;1;0;438;-331;3865;-1314;-193;-225;-201
465372;1;1;0;438;-329;3857;-1322;-190;-233;-199
465382;1;1;0;438;-329;3845;-1310;-206;-243;-227
465392;1;1;0;438;-299;3839;-1346;-231;-286;-287
465402;1;1;0;438;-321;3862;-1386;-263;-360;-344
465412;1;1;0;438;-351;3873;-1352;-294;-407;-355
465422;1;1;0;438;-336;3862;-1311;-312;-448;-343
465432;1;1;0;438;-337;3850;-1302;-325;-493;-344
465442;1;1;0;438;-345;3863;-1299;-322;-537;-340
465452;1;1;0;438;-342;3889;-1301;-322;-541;-299
465462;1;1;0;438;-329;3873;-1318;-306;-514;-253
465472;1;1;0;438;-348;3845;-1365;-282;-480;-229
465482;1;1;0;438;-348;3838;-1354;-276;-457;-239
465492;1;1;0;438;-352;3826;-1365;-283;-447;-260
465502;1;1;0;438;-387;3855;-1363;-307;-436;-272
465512;1;1;0;438;-377;3864;-1358;-306;-418;-263
465522;1;1;0;438;-374;3879;-1332;-319;-389;-234
465532;1;1;0;438;-361;3881;-1337;-309;-343;-207
465542;1;1;0;438;-357;3865;-1322;-290;-299;-197
465552;1;1;0;438;-362;3876;-1295;-270;-274;-202
465562;1;1;0;438;-373;3881;-1301;-266;-282;-218
465572;1;1;0;438;-393;3882;-1279;-275;-290;-227
465582;1;1;0;438;-371;3883;-1287;-283;-302;-235
465592;1;1;0;438;-375;3884;-1287;-277;-303;-235
465602;1;1;0;438;-371;3886;-1298;-262;-313;-251
465612;1;1;0;438;-400;3885;-1273;-264;-351;-243
465622;1;1;0;438;-429;3884;-1249;-284;-402;-220
465632;1;1;0;438;-435;3903;-1228;-302;-448;-168
465642;1;1;0;438;-435;3907;-1229;-329;-497;-135
465652;1;1;0;438;-426;3900;-1247;-340;-511;-113
465662;1;1;0;438;-400;3881;-1257;-333;-489;-103
465672;1;1;0;438;-369;3882;-1290;-320;-446;-143
465682;1;1;0;438;-360;3864;-1316;-316;-414;-176
465692;1;1;0;438;-376;3867;-1313;-329;-392;-203
465702;1;1;0;438;-358;3847;-1292;-347;-410;-238
465712;1;1;0;438;-404;3850;-1277;-377;-456;-263
465722;1;1;0;438;-441;3858;-1240;-405;-552;-283
465732;1;1;0;438;-457;3889;-1214;-446;-648;-285
465742;1;1;0;438;-492;3917;-1197;-474;-758;-280
465752;1;1;0;438;-499;3947;-1183;-485;-834;-256
465762;1;1;0;438;-415;3968;-1202;-488;-819;-244
465772;1;1;0;438;-351;3946;-1235;-479;-727;-254
465782;1;1;0;438;-321;3878;-1275;-481;-640;-266
465792;1;1;0;438;-321;3828;-1307;-503;-668;-267
465802;1;1;0;438;-346;3796;-1290;-546;-750;-272
465812;1;1;0;438;-352;3791;-1245;-582;-822;-297
465822;1;1;0;438;-382;3831;-1174;-608;-897;-384
465832;1;1;0;438;-456;3886;-1165;-597;-970;-451
465842;1;1;0;438;-521;3937;-1175;-566;-1002;-410
465852;1;1;0;438;-543;3999;-1193;-540;-943;-269
465862;1;1;0;439;-534;3982;-1195;-500;-832;-124
465872;1;1;0;439;-504;3951;-1181;-459;-751;-33
465882;1;1;0;439;-457;3907;-1180;-436;-710;2
465892;1;1;0;439;-443;3843;-1193;-428;-714;-2
465902;1;1;0;439;-424;3822;-1182;-430;-753;-46
465912;1;1;0;439;-442;3838;-1186;-437;-791;-128
465922;1;1;0;439;-485;3872;-1191;-469;-821;-161
465932;1;1;0;439;-490;3890;-1165;-480;-807;-159
465942;1;1;0;439;-483;3949;-1201;-480;-745;-122
465952;1;1;0;439;-460;3915;-1197;-491;-695;-76
465962;1;1;0;439;-428;3864;-1178;-501;-634;-76
465972;1;1;0;439;-402;3838;-1184;-524;-655;-164
465982;1;1;0;439;-430;3830;-1190;-577;-760;-268
465992;1;1;0;439;-457;3860;-1152;-634;-889;-331
466002;1;1;0;439;-491;3897;-1152;-661;-1029;-348
466012;1;1;0;439;-565;3937;-1129;-679;-1135;-314
466022;1;1;0;439;-596;3959;-1071;-629;-1212;-236
466032;1;1;0;439;-633;3968;-1000;-554;-1254;-138
466042;1;1;0;439;-652;3981;-988;-471;-1260;-14
466052;1;1;0;439;-635;3967;-978;-382;-1215;112
466062;1;1;0;439;-553;3955;-1011;-326;-1110;228
466072;1;1;0;439;-480;3920;-1034;-264;-1019;262
466082;1;1;0;439;-430;3884;-1084;-229;-995;237
466092;1;1;0;439;-437;3883;-1101;-215;-1050;188
466102;1;1;0;439;-496;3899;-1099;-245;-1152;143
466112;1;1;0;439;-551;3924;-1090;-281;-1243;143
466122;1;1;0;439;-608;3951;-1084;-307;-1289;163
466132;1;1;0;439;-571;3963;-1070;-335;-1282;201
466142;1;1;0;439;-554;3920;-1074;-354;-1225;194
466152;1;1;0;439;-512;3908;-1113;-382;-1202;196
466162;1;1;0;439;-469;3893;-1116;-439;-1182;170
466172;1;1;0;439;-462;3907;-1135;-498;-1206;117
466182;1;1;0;439;-512;3934;-1123;-583;-1244;79
466192;1;1;0;439;-558;3961;-1092;-644;-1261;65
466202;1;1;0;439;-609;3977;-1055;-659;-1252;81
466212;1;1;0;439;-620;4000;-1044;-637;-1214;110
466222;1;1;0;439;-594;3994;-999;-601;-1128;162
466232;1;1;0;439;-555;3952;-963;-537;-1033;205
466242;1;1;0;439;-496;3903;-960;-488;-971;238
466252;1;1;0;439;-473;3884;-937;-456;-960;227
466262;1;1;0;439;-466;3890;-933;-477;-1012;178
466272;1;1;0;439;-509;3924;-923;-514;-1120;146
466282;1;1;0;439;-588;3966;-890;-557;-1227;153
466292;1;1;0;439;-628;3978;-873;-578;-1310;180
466302;1;1;0;439;-615;4004;-866;-556;-1339;208
466312;1;1;0;439;-606;3979;-891;-532;-1330;231
466322;1;1;0;439;-585;3987;-935;-492;-1327;290
466332;1;1;0;439;-526;3949;-951;-505;-1315;342
466342;1;1;0;439;-467;3916;-953;-513;-1343;325
466352;1;1;0;439;-459;3911;-952;-561;-1413;244
466362;1;1;0;440;-486;3947;-935;-607;-1529;164
466372;1;1;0;440;-538;3978;-921;-659;-1607;133
466382;1;1;0;440;-590;3990;-913;-682;-1633;170
466392;1;1;0;440;-588;4011;-885;-672;-1609;225
466402;1;1;0;440;-584;4000;-877;-636;-1574;272
466412;1;1;0;440;-568;3980;-912;-603;-1527;300
466422;1;1;0;440;-534;3979;-926;-594;-1478;344
466432;1;1;0;440;-497;3987;-973;-612;-1440;378
466442;1;1;0;440;-492;3948;-1004;-642;-1403;336
466452;1;1;0;440;-517;3967;-1004;-669;-1403;261
466462;1;1;0;440;-590;4002;-960;-707;-1431;211
466472;1;1;0;440;-627;4006;-900;-715;-1449;221
466482;1;1;0;440;-636;4018;-864;-680;-1455;249
466492;1;1;0;440;-640;4006;-815;-658;-1430;277
466502;1;1;0;440;-586;3993;-836;-650;-1365;305
466512;1;1;0;440;-504;3921;-844;-646;-1260;309
466522;1;1;0;440;-426;3864;-863;-645;-1183;247
466532;1;1;0;440;-409;3834;-868;-653;-1198;142
466542;1;1;0;440;-426;3862;-845;-692;-1263;63
466552;1;1;0;440;-473;3918;-785;-704;-1353;67
466562;1;1;0;440;-524;3966;-746;-700;-1422;93
466572;1;1;0;440;-563;4021;-694;-683;-1452;119
466582;1;1;0;440;-572;4042;-677;-649;-1477;134
466592;1;1;0;440;-585;4081;-674;-621;-1494;172
466602;1;1;0;440;-556;4068;-662;-611;-1478;231
466612;1;1;0;440;-495;4020;-631;-597;-1431;293
466622;1;1;0;440;-471;3983;-620;-595;-1394;289
466632;1;1;0;440;-441;4004;-670;-626;-1414;245
466642;1;1;0;440;-466;4039;-755;-678;-1429;217
466652;1;1;0;440;-501;4081;-790;-723;-1429;208
466662;1;1;0;440;-582;4068;-764;-758;-1423;223
466672;1;1;0;440;-612;4036;-735;-760;-1383;225
466682;1;1;0;440;-593;4003;-705;-747;-1328;241
466692;1;1;0;440;-537;3979;-669;-729;-1262;252
466702;1;1;0;440;-476;3950;-671;-715;-1178;259
466712;1;1;0;440;-396;3929;-678;-725;-1109;211
466722;1;1;0;440;-376;3947;-661;-762;-1076;113
466732;1;1;0;440;-409;4013;-659;-812;-1092;51
466742;1;1;0;440;-471;4089;-627;-855;-1132;47
466752;1;1;0;440;-520;4156;-576;-864;-1140;120
466762;1;1;0;440;-530;4169;-577;-827;-1122;219
466772;1;1;0;440;-513;4140;-547;-763;-1076;273
466782;1;1;0;440;-480;4053;-553;-662;-1025;303
466792;1;1;0;440;-443;3948;-548;-595;-966;293
466802;1;1;0;440;-436;3891;-574;-559;-924;258
466812;1;1;0;440;-421;3855;-599;-556;-888;203
466822;1;1;0;440;-426;3873;-587;-576;-851;141
466832;1;1;0;440;-452;3899;-579;-589;-814;71
466842;1;1;0;440;-482;3964;-527;-615;-766;11
466852;1;1;0;440;-516;4014;-488;-621;-725;-23
466862;1;1;0;441;-556;4040;-441;-575;-694;-9
466872;1;1;0;441;-579;4144;-417;-549;-686;19
466882;1;1;0;441;-537;4138;-370;-529;-674;89
466892;1;1;0;441;-496;4116;-339;-490;-649;152
466902;1;1;0;441;-434;4032;-343;-465;-602;167
466912;1;1;0;441;-399;3969;-354;-451;-598;90
466922;1;1;0;441;-429;3956;-440;-481;-665;-14
466932;1;1;0;441;-460;3968;-455;-530;-713;-57
466942;1;1;0;441;-463;3993;-459;-572;-721;-57
466952;1;1;0;441;-518;4033;-468;-576;-704;-68
466962;1;1;0;441;-583;4076;-448;-550;-669;-57
466972;1;1;0;441;-613;4108;-433;-519;-614;-7
466982;1;1;0;441;-613;4143;-428;-495;-549;86
466992;1;1;0;441;-559;4142;-367;-455;-492;170
467002;1;1;0;441;-500;4110;-333;-423;-452;204
467012;1;1;0;441;-418;4072;-326;-391;-455;199
467022;1;1;0;441;-403;4032;-320;-372;-499;161
467032;1;1;0;441;-450;4012;-324;-374;-568;122
467042;1;1;0;441;-484;3994;-354;-400;-627;79
467052;1;1;0;441;-539;3965;-390;-449;-645;59
467062;1;1;0;441;-549;3945;-462;-495;-633;44
467072;1;1;0;441;-545;3942;-506;-534;-592;12
467082;1;1;0;441;-515;3973;-461;-545;-550;-35
467092;1;1;0;441;-506;4031;-444;-545;-506;-58
467102;1;1;0;441;-507;4078;-430;-539;-491;-65
467112;1;1;0;441;-515;4125;-397;-523;-471;-56
467122;1;1;0;441;-539;4138;-379;-497;-454;-68
467132;1;1;0;441;-534;4122;-339;-476;-443;-63
467142;1;1;0;441;-527;4081;-359;-436;-419;-52
467152;1;1;0;441;-524;4027;-352;-393;-414;-33
467162;1;1;0;441;-520;4009;-310;-352;-429;-6
467172;1;1;0;441;-511;4007;-314;-322;-457;39
467182;1;1;0;441;-501;4018;-298;-307;-503;81
467192;1;1;0;441;-494;4038;-315;-308;-544;109
467202;1;1;0;441;-505;4041;-328;-302;-584;121
467212;1;1;0;441;-483;4048;-346;-300;-607;112
467222;1;1;0;441;-502;4069;-371;-289;-620;98
467232;1;1;0;441;-502;4060;-345;-269;-610;103
467242;1;1;0;441;-485;4047;-348;-251;-564;108
467252;1;1;0;441;-476;4023;-355;-240;-528;94
467262;1;1;0;441;-504;4027;-390;-222;-506;48
467272;1;1;0;441;-512;4032;-408;-238;-502;9
467282;1;1;0;441;-515;4060;-410;-242;-493;4
467292;1;1;0;441;-526;4065;-361;-246;-462;40
467302;1;1;0;441;-503;4073;-335;-224;-448;65
467312;1;1;0;441;-494;4087;-304;-210;-461;72
467322;1;1;0;441;-475;4093;-273;-226;-489;93
467332;1;1;0;441;-464;4106;-259;-230;-514;117
467342;1;1;0;441;-452;4078;-268;-236;-522;126
467352;1;1;0;441;-475;4064;-314;-230;-530;127
