timestamp;subject_id;activity;label;seq;ax;ay;az;gx;gy;gz
480363;1;1;0;468;-490;4156;-746;986;2169;-584
480373;1;1;0;468;-509;4177;-738;940;2094;-545
480383;1;1;0;468;-569;4199;-764;936;2066;-483
480393;1;1;0;468;-576;4163;-771;917;2067;-449
480403;1;1;0;468;-579;4105;-777;907;2099;-426
480413;1;1;0;468;-492;4017;-765;870;2146;-401
480423;1;1;0;468;-431;3920;-753;856;2206;-421
480433;1;1;0;468;-386;3857;-814;815;2240;-488
480443;1;1;0;468;-351;3824;-890;731;2243;-580
480453;1;1;0;468;-380;3807;-937;651;2224;-679
480463;1;1;0;468;-488;3879;-984;571;2152;-729
480473;1;1;0;468;-537;3923;-1025;484;2110;-751
480483;1;1;0;468;-586;4011;-1003;407;2071;-753
480493;1;1;0;468;-659;4114;-987;350;2016;-713
480503;1;1;0;468;-713;4174;-905;323;2013;-604
480513;1;1;0;468;-697;4207;-837;309;2067;-448
480523;1;1;0;468;-666;4215;-822;291;2136;-289
480533;1;1;0;468;-567;4170;-796;281;2181;-145
480543;1;1;0;468;-531;4114;-793;293;2200;-76
480553;1;1;0;468;-524;4083;-846;285;2148;-38
480563;1;1;0;468;-555;4064;-874;278;2026;-4
480573;1;1;0;468;-595;4023;-842;254;1887;46
480583;1;1;0;468;-569;4009;-824;256;1802;79
480593;1;1;0;468;-520;3959;-785;287;1797;99
480603;1;1;0;468;-490;3921;-810;325;1752;132
480613;1;1;0;468;-487;3906;-796;388;1710;89
480623;1;1;0;468;-485;3907;-839;413;1590;43
480633;1;1;0;468;-542;3948;-864;388;1446;39
480643;1;1;0;468;-607;3996;-908;370;1304;77
480653;1;1;0;468;-620;4042;-943;361;1236;127
480663;1;1;0;468;-660;4052;-969;378;1243;184
480673;1;1;0;468;-645;4022;-965;417;1310;264
480683;1;1;0;468;-548;3982;-970;477;1435;350
480693;1;1;0;468;-437;3931;-953;547;1593;376
480703;1;1;0;468;-383;3895;-1006;549;1686;325
480713;1;1;0;468;-379;3887;-1058;481;1615;292
480723;1;1;0;468;-408;3907;-1103;357;1416;265
480733;1;1;0;468;-448;3956;-1119;235;1175;255
480743;1;1;0;468;-476;3995;-1118;112;994;267
480753;1;1;0;468;-462;3973;-1113;61;900;262
480763;1;1;0;468;-459;3923;-1145;59;904;224
480773;1;1;0;468;-422;3873;-1201;70;927;175
480783;1;1;0;468;-378;3846;-1205;58;967;123
480793;1;1;0;468;-318;3821;-1217;43;1034;32
480803;1;1;0;468;-330;3836;-1228;-16;1073;18
480813;1;1;0;468;-313;3815;-1249;-62;1094;47
480823;1;1;0;468;-310;3798;-1229;-74;1105;39
480833;1;1;0;468;-282;3826;-1206;-83;1089;-31
480843;1;1;0;468;-309;3874;-1180;-78;1039;-132
480853;1;1;0;468;-370;3898;-1204;-81;1002;-195
480862;1;1;0;469;-382;3926;-1228;-68;1022;-222
480872;1;1;0;469;-410;3918;-1194;-52;1063;-136
480882;1;1;0;469;-397;3915;-1191;-19;1121;-107
480892;1;1;0;469;-355;3935;-1197;-7;1156;-104
480902;1;1;0;469;-322;3905;-1200;-22;1179;-106
480912;1;1;0;469;-330;3867;-1217;-33;1146;-118
480922;1;1;0;469;-320;3837;-1244;-50;1074;-122
480932;1;1;0;469;-329;3777;-1242;-57;1013;-198
480942;1;1;0;469;-371;3799;-1270;-67;966;-265
480952;1;1;0;469;-422;3828;-1238;-61;932;-295
480962;1;1;0;469;-439;3848;-1237;-70;941;-307
480972;1;1;0;469;-480;3894;-1241;-80;925;-304
480982;1;1;0;469;-469;3913;-1210;-74;889;-264
480992;1;1;0;469;-435;3930;-1195;-81;913;-226
481002;1;1;0;469;-401;3912;-1177;-47;950;-224
481012;1;1;0;469;-355;3852;-1191;-35;982;-258
481022;1;1;0;469;-388;3841;-1218;-20;975;-290
481032;1;1;0;469;-386;3808;-1264;-77;965;-308
481042;1;1;0;469;-356;3791;-1303;-109;965;-375
481052;1;1;0;469;-344;3814;-1325;-138;927;-460
481062;1;1;0;469;-359;3836;-1348;-167;901;-503
481072;1;1;0;469;-400;3873;-1338;-190;892;-518
481082;1;1;0;469;-444;3871;-1310;-207;858;-519
481092;1;1;0;469;-484;3914;-1234;-226;822;-480
481102;1;1;0;469;-439;3917;-1192;-212;834;-494
481112;1;1;0;469;-391;3884;-1170;-169;910;-525
481122;1;1;0;469;-376;3870;-1174;-89;922;-606
481132;1;1;0;469;-443;3891;-1192;-77;912;-709
481142;1;1;0;469;-543;3908;-1221;-135;822;-714
481152;1;1;0;469;-624;3954;-1185;-198;702;-576
481162;1;1;0;469;-605;3985;-1128;-247;688;-387
481172;1;1;0;469;-553;3962;-1099;-212;796;-265
481182;1;1;0;469;-424;3907;-1121;-156;899;-237
481192;1;1;0;469;-343;3849;-1157;-89;935;-337
481202;1;1;0;469;-362;3824;-1198;-92;875;-452
481212;1;1;0;469;-348;3831;-1211;-136;747;-520
481222;1;1;0;469;-369;3878;-1221;-194;614;-555
481232;1;1;0;469;-352;3914;-1198;-253;502;-595
481242;1;1;0;469;-415;3925;-1166;-307;391;-647
481252;1;1;0;469;-390;3894;-1142;-344;265;-702
481262;1;1;0;469;-371;3922;-1149;-373;104;-800
481272;1;1;0;469;-451;3941;-1180;-436;-100;-811
481282;1;1;0;469;-486;3963;-1197;-467;-252;-785
481292;1;1;0;469;-553;3998;-1198;-407;-258;-704
481302;1;1;0;469;-589;4045;-1213;-321;-212;-535
481312;1;1;0;469;-574;4032;-1193;-209;-57;-352
481322;1;1;0;469;-581;3996;-1163;-101;98;-162
481332;1;1;0;469;-604;3976;-1152;-11;204;-14
481342;1;1;0;469;-524;3941;-1117;17;229;117
481352;1;1;0;469;-410;3949;-1103;34;257;137
481362;1;1;0;470;-326;3892;-1135;40;241;51
481372;1;1;0;470;-377;3848;-1205;44;191;-47
481382;1;1;0;470;-459;3886;-1238;-15;110;-36
481392;1;1;0;470;-407;3869;-1270;-116;103;14
481402;1;1;0;470;-333;3803;-1298;-197;150;-18
481412;1;1;0;470;-276;3809;-1350;-222;187;-178
481422;1;1;0;470;-306;3800;-1401;-192;181;-442
481432;1;1;0;470;-360;3783;-1380;-191;137;-654
481442;1;1;0;470;-435;3810;-1363;-224;114;-674
481452;1;1;0;470;-615;3872;-1324;-271;72;-674
481462;1;1;0;470;-608;3898;-1289;-323;3;-553
481472;1;1;0;470;-600;3891;-1139;-299;-87;-512
481482;1;1;0;470;-588;3908;-1071;-234;-75;-466
481492;1;1;0;470;-595;3893;-1071;-203;-59;-393
481502;1;1;0;470;-577;3899;-1064;-218;-111;-429
481512;1;1;0;470;-571;3857;-1074;-246;-171;-372
481522;1;1;0;470;-566;3864;-1060;-291;-164;-321
481532;1;1;0;470;-543;3883;-1091;-369;-222;-266
481542;1;1;0;470;-510;3859;-1112;-394;-342;-233
481552;1;1;0;470;-580;3879;-1130;-385;-500;-258
481562;1;1;0;470;-537;3877;-1109;-326;-606;-308
481572;1;1;0;470;-523;3959;-1104;-232;-568;-279
481582;1;1;0;470;-497;3944;-1113;-151;-446;-202
481592;1;1;0;470;-445;3893;-1098;-70;-326;-199
481602;1;1;0;470;-432;3893;-1095;-20;-293;-212
481612;1;1;0;470;-394;3881;-1094;-19;-356;-251
481622;1;1;0;470;-388;3910;-1073;-38;-418;-286
481632;1;1;0;470;-397;3943;-1090;-66;-498;-295
481642;1;1;0;470;-386;3925;-1127;-106;-504;-269
481652;1;1;0;470;-391;3935;-1180;-167;-508;-253
481662;1;1;0;470;-415;3938;-1207;-168;-447;-219
481672;1;1;0;470;-405;3931;-1236;-154;-382;-184
481682;1;1;0;470;-364;3907;-1232;-125;-231;-165
481692;1;1;0;470;-326;3892;-1268;-124;-44;-209
481702;1;1;0;470;-340;3862;-1280;-164;108;-281
481712;1;1;0;470;-344;3829;-1278;-232;193;-337
481722;1;1;0;470;-416;3842;-1255;-254;342;-385
481732;1;1;0;470;-466;3871;-1254;-275;461;-385
481742;1;1;0;470;-474;3878;-1199;-289;575;-375
481752;1;1;0;470;-498;3900;-1197;-250;695;-402
481762;1;1;0;470;-491;3927;-1152;-223;794;-414
481772;1;1;0;470;-490;3937;-1142;-200;917;-397
481782;1;1;0;470;-483;3916;-1117;-174;1049;-379
481792;1;1;0;470;-469;3884;-1094;-153;1119;-380
481802;1;1;0;470;-483;3878;-1096;-128;1121;-409
481812;1;1;0;470;-482;3885;-1117;-142;1084;-414
481822;1;1;0;470;-459;3923;-1138;-165;1074;-409
481832;1;1;0;470;-439;3965;-1138;-162;1087;-410
481842;1;1;0;470;-438;3959;-1128;-155;1103;-408
481852;1;1;0;470;-423;3913;-1125;-128;1093;-397
481862;1;1;0;471;-440;3894;-1084;-113;1034;-406
481872;1;1;0;471;-459;3890;-1082;-115;937;-443
481882;1;1;0;471;-462;3899;-1074;-105;816;-472
481892;1;1;0;471;-486;3918;-1108;-88;727;-474
481902;1;1;0;471;-503;3907;-1116;-87;701;-447
481912;1;1;0;471;-510;3929;-1132;-90;693;-403
481922;1;1;0;471;-498;3918;-1167;-91;674;-345
481932;1;1;0;471;-501;3898;-1160;-95;645;-295
481942;1;1;0;471;-540;3893;-1169;-83;582;-273
481952;1;1;0;471;-574;3896;-1150;-92;516;-283
481962;1;1;0;471;-588;3893;-1152;-113;465;-307
481972;1;1;0;471;-553;3911;-1171;-113;494;-318
481982;1;1;0;471;-534;3913;-1227;-110;554;-296
481992;1;1;0;471;-522;3905;-1247;-103;635;-273
482002;1;1;0;471;-512;3894;-1279;-106;675;-265
482012;1;1;0;471;-525;3890;-1291;-118;681;-259
482022;1;1;0;471;-536;3872;-1268;-124;683;-254
482032;1;1;0;471;-537;3884;-1269;-137;683;-258
482042;1;1;0;471;-517;3873;-1244;-156;679;-255
482052;1;1;0;471;-521;3862;-1241;-167;687;-254
482062;1;1;0;471;-511;3843;-1207;-174;690;-266
482072;1;1;0;471;-527;3852;-1195;-174;681;-259
482082;1;1;0;471;-527;3850;-1195;-172;661;-240
482092;1;1;0;471;-512;3873;-1208;-154;638;-223
482102;1;1;0;471;-501;3855;-1199;-146;623;-210
482112;1;1;0;471;-503;3901;-1178;-147;595;-220
482122;1;1;0;471;-528;3893;-1182;-154;531;-230
482132;1;1;0;471;-543;3903;-1186;-164;482;-222
482142;1;1;0;471;-537;3909;-1176;-158;445;-185
482152;1;1;0;471;-509;3920;-1198;-150;421;-150
482162;1;1;0;471;-508;3893;-1220;-145;402;-123
482172;1;1;0;471;-520;3872;-1212;-123;351;-117
482182;1;1;0;471;-534;3849;-1227;-124;311;-121
482192;1;1;0;471;-545;3838;-1205;-112;268;-116
482202;1;1;0;471;-549;3848;-1194;-99;227;-86
482212;1;1;0;471;-528;3859;-1216;-113;226;-80
482222;1;1;0;471;-498;3848;-1251;-128;250;-95
482232;1;1;0;471;-473;3868;-1278;-157;283;-130
482242;1;1;0;471;-483;3853;-1272;-156;275;-142
482252;1;1;0;471;-497;3850;-1276;-140;242;-147
482262;1;1;0;471;-517;3844;-1274;-121;179;-161
482272;1;1;0;471;-518;3860;-1291;-120;121;-180
482282;1;1;0;471;-514;3840;-1286;-141;94;-190
482292;1;1;0;471;-511;3808;-1251;-140;95;-211
482302;1;1;0;471;-482;3783;-1250;-137;101;-254
482312;1;1;0;471;-527;3797;-1249;-135;76;-291
482322;1;1;0;471;-552;3783;-1234;-131;25;-304
482332;1;1;0;471;-552;3805;-1212;-149;-41;-293
482342;1;1;0;471;-491;3816;-1216;-156;-89;-330
482352;1;1;0;471;-526;3847;-1254;-125;-101;-390
482362;1;1;0;472;-517;3861;-1232;-145;-115;-431
482372;1;1;0;472;-523;3875;-1267;-126;-58;-446
482382;1;1;0;472;-556;3890;-1286;-130;-26;-431
482392;1;1;0;472;-566;3908;-1301;-131;-38;-420
482402;1;1;0;472;-596;3882;-1295;-134;-23;-391
482412;1;1;0;472;-575;3874;-1260;-117;15;-340
482422;1;1;0;472;-574;3877;-1223;-105;11;-294
482432;1;1;0;472;-563;3878;-1215;-122;-20;-215
482442;1;1;0;472;-527;3884;-1214;-145;-55;-141
482452;1;1;0;472;-501;3872;-1226;-136;-82;-104
482462;1;1;0;472;-509;3855;-1250;-145;-108;-109
482472;1;1;0;472;-542;3857;-1262;-160;-152;-122
482482;1;1;0;472;-535;3869;-1276;-184;-175;-120
482492;1;1;0;472;-497;3886;-1301;-206;-156;-84
482502;1;1;0;472;-528;3831;-1320;-242;-83;-77
482512;1;1;0;472;-502;3845;-1302;-216;-58;-111
482522;1;1;0;472;-505;3847;-1314;-212;-60;-172
482532;1;1;0;472;-514;3845;-1287;-209;-26;-186
482542;1;1;0;472;-503;3852;-1258;-202;50;-176
482552;1;1;0;472;-505;3874;-1271;-201;103;-173
482562;1;1;0;472;-488;3863;-1264;-190;123;-180
482572;1;1;0;472;-473;3864;-1302;-191;127;-204
482582;1;1;0;472;-479;3863;-1294;-193;124;-222
482592;1;1;0;472;-505;3864;-1291;-203;111;-233
482602;1;1;0;472;-496;3877;-1280;-224;120;-202
482612;1;1;0;472;-523;3891;-1281;-222;127;-178
482622;1;1;0;472;-535;3883;-1267;-231;119;-155
482632;1;1;0;472;-517;3888;-1252;-224;104;-121
482642;1;1;0;472;-503;3873;-1233;-202;105;-94
482652;1;1;0;472;-493;3844;-1249;-191;105;-83
482662;1;1;0;472;-487;3855;-1239;-183;108;-87
482672;1;1;0;472;-479;3850;-1253;-175;93;-105
482682;1;1;0;472;-484;3840;-1263;-178;67;-124
482692;1;1;0;472;-496;3858;-1260;-195;63;-137
482702;1;1;0;472;-537;3853;-1279;-198;45;-138
482712;1;1;0;472;-557;3857;-1259;-193;35;-121
482722;1;1;0;472;-551;3859;-1274;-177;43;-118
482732;1;1;0;472;-545;3857;-1265;-161;53;-104
482742;1;1;0;472;-541;3863;-1258;-141;66;-101
482752;1;1;0;472;-520;3863;-1247;-135;64;-91
482762;1;1;0;472;-510;3868;-1262;-138;61;-78
482772;1;1;0;472;-507;3876;-1239;-142;46;-68
482782;1;1;0;472;-508;3872;-1252;-153;22;-67
482792;1;1;0;472;-512;3867;-1252;-163;10;-73
482802;1;1;0;472;-501;3850;-1250;-169;-1;-85
482812;1;1;0;472;-515;3835;-1270;-161;-12;-110
482822;1;1;0;472;-513;3823;-1259;-171;-18;-122
482832;1;1;0;472;-507;3837;-1283;-175;-1;-124
482842;1;1;0;472;-502;3824;-1315;-167;26;-122
482852;1;1;0;472;-515;3836;-1311;-157;53;-135
482862;1;1;0;473;-520;3850;-1321;-152;57;-140
482872;1;1;0;473;-498;3885;-1313;-147;41;-142
482882;1;1;0;473;-523;3891;-1289;-133;14;-133
482892;1;1;0;473;-526;3882;-1265;-111;-6;-129
482902;1;1;0;473;-525;3875;-1243;-103;-21;-119
482912;1;1;0;473;-541;3862;-1224;-95;-25;-108
482922;1;1;0;473;-553;3863;-1211;-84;-44;-87
482932;1;1;0;473;-558;3864;-1224;-93;-83;-46
482942;1;1;0;473;-572;3859;-1211;-100;-105;-19
482952;1;1;0;473;-555;3837;-1243;-121;-123;-24
482962;1;1;0;473;-531;3848;-1280;-128;-118;-33
482972;1;1;0;473;-526;3835;-1296;-126;-116;-54
482982;1;1;0;473;-514;3840;-1301;-134;-85;-74
482992;1;1;0;473;-506;3858;-1336;-113;-70;-84
483002;1;1;0;473;-517;3855;-1339;-108;-44;-85
483012;1;1;0;473;-515;3856;-1312;-99;-37;-96
483022;1;1;0;473;-503;3869;-1288;-106;-37;-97
483032;1;1;0;473;-521;3865;-1266;-113;-10;-102
483042;1;1;0;473;-521;3863;-1267;-106;17;-98
483052;1;1;0;473;-518;3861;-1237;-117;24;-94
483062;1;1;0;473;-508;3867;-1227;-138;25;-77
483072;1;1;0;473;-505;3855;-1223;-155;21;-77
483082;1;1;0;473;-510;3864;-1242;-168;0;-80
483092;1;1;0;473;-500;3871;-1246;-157;-34;-82
483102;1;1;0;473;-501;3861;-1262;-160;-49;-80
483112;1;1;0;473;-497;3861;-1304;-156;-65;-79
483122;1;1;0;473;-525;3851;-1293;-150;-74;-92
483132;1;1;0;473;-539;3850;-1297;-141;-81;-100
483142;1;1;0;473;-541;3846;-1296;-147;-59;-106
483152;1;1;0;473;-545;3844;-1271;-148;-33;-91
483162;1;1;0;473;-538;3847;-1271;-147;-32;-96
483172;1;1;0;473;-534;3860;-1245;-144;-63;-113
483182;1;1;0;473;-540;3867;-1234;-155;-96;-122
483192;1;1;0;473;-537;3866;-1215;-142;-146;-103
483202;1;1;0;473;-531;3868;-1223;-143;-158;-78
483212;1;1;0;473;-516;3880;-1217;-148;-137;-49
483222;1;1;0;473;-502;3862;-1247;-145;-104;-41
483232;1;1;0;473;-500;3866;-1310;-154;-80;-30
483242;1;1;0;473;-492;3866;-1326;-139;-56;-30
483252;1;1;0;473;-489;3863;-1322;-124;-68;-24
483262;1;1;0;473;-489;3851;-1304;-101;-65;-21
483272;1;1;0;473;-488;3842;-1304;-98;-48;-14
483282;1;1;0;473;-495;3836;-1301;-117;-51;-20
483292;1;1;0;473;-494;3830;-1285;-131;-60;-33
483302;1;1;0;473;-515;3838;-1290;-145;-60;-54
483312;1;1;0;473;-516;3843;-1278;-143;-64;-68
483322;1;1;0;473;-519;3854;-1296;-148;-65;-81
483332;1;1;0;473;-532;3841;-1270;-157;-59;-86
483342;1;1;0;473;-529;3859;-1276;-157;-60;-89
483352;1;1;0;473;-529;3860;-1265;-159;-58;-100
483362;1;1;0;474;-526;3875;-1260;-154;-69;-103
483372;1;1;0;474;-539;3863;-1256;-143;-61;-97
483382;1;1;0;474;-529;3866;-1246;-142;-35;-83
483392;1;1;0;474;-540;3859;-1263;-120;-26;-72
483402;1;1;0;474;-532;3848;-1256;-111;-14;-71
483412;1;1;0;474;-512;3842;-1269;-109;-17;-82
483422;1;1;0;474;-527;3840;-1265;-115;-46;-80
483432;1;1;0;474;-540;3857;-1262;-118;-79;-75
483442;1;1;0;474;-525;3861;-1259;-121;-103;-73
483452;1;1;0;474;-524;3861;-1239;-125;-120;-57
483462;1;1;0;474;-519;3874;-1240;-128;-129;-45
483472;1;1;0;474;-507;3875;-1241;-123;-149;-39
483482;1;1;0;474;-511;3876;-1248;-123;-156;-31
483492;1;1;0;474;-525;3857;-1241;-122;-156;-34
483502;1;1;0;474;-534;3847;-1253;-115;-162;-32
483512;1;1;0;474;-538;3844;-1249;-122;-154;-34
483522;1;1;0;474;-522;3856;-1289;-129;-142;-42
483532;1;1;0;474;-532;3851;-1295;-134;-120;-49
483542;1;1;0;474;-536;3846;-1300;-135;-109;-60
483552;1;1;0;474;-543;3859;-1266;-133;-105;-61
483562;1;1;0;474;-536;3865;-1277;-139;-107;-60
483572;1;1;0;474;-538;3865;-1247;-134;-118;-56
483582;1;1;0;474;-534;3874;-1223;-135;-131;-51
483592;1;1;0;474;-521;3871;-1230;-135;-141;-38
483602;1;1;0;474;-515;3860;-1237;-137;-138;-32
483612;1;1;0;474;-506;3872;-1231;-153;-134;-38
483622;1;1;0;474;-501;3857;-1256;-150;-140;-49
483632;1;1;0;474;-514;3852;-1251;-160;-143;-54
483642;1;1;0;474;-514;3854;-1252;-145;-156;-52
483652;1;1;0;474;-521;3860;-1275;-152;-158;-50
483662;1;1;0;474;-516;3847;-1242;-152;-145;-50
483672;1;1;0;474;-505;3852;-1256;-149;-141;-56
483682;1;1;0;474;-503;3857;-1257;-148;-126;-59
483692;1;1;0;474;-500;3861;-1241;-135;-126;-62
483702;1;1;0;474;-514;3867;-1247;-140;-126;-68
483712;1;1;0;474;-515;3861;-1265;-154;-127;-74
483722;1;1;0;474;-527;3851;-1268;-155;-125;-75
483732;1;1;0;474;-514;3862;-1266;-153;-118;-71
483742;1;1;0;474;-531;3851;-1260;-152;-103;-58
483752;1;1;0;474;-531;3850;-1271;-150;-98;-48
483762;1;1;0;474;-526;3865;-1276;-149;-91;-40
483772;1;1;0;474;-527;3862;-1266;-146;-112;-26
483782;1;1;0;474;-509;3859;-1258;-145;-125;-28
483792;1;1;0;474;-506;3871;-1263;-143;-127;-39
483802;1;1;0;474;-516;3868;-1262;-127;-133;-46
483812;1;1;0;474;-510;3855;-1272;-134;-127;-52
483822;1;1;0;474;-504;3861;-1265;-138;-115;-53
483832;1;1;0;474;-509;3851;-1289;-149;-103;-60
483842;1;1;0;474;-513;3839;-1282;-146;-103;-75
483852;1;1;0;474;-520;3843;-1278;-147;-110;-81
483862;1;1;0;475;-506;3857;-1281;-158;-117;-79
483872;1;1;0;475;-524;3859;-1250;-150;-116;-74
483882;1;1;0;475;-521;3869;-1259;-144;-91;-69
483892;1;1;0;475;-504;3858;-1235;-147;-63;-64
483902;1;1;0;475;-521;3854;-1257;-142;-68;-76
483912;1;1;0;475;-518;3869;-1260;-141;-97;-85
483922;1;1;0;475;-531;3864;-1235;-139;-118;-93
483932;1;1;0;475;-543;3864;-1249;-136;-134;-85
483942;1;1;0;475;-537;3870;-1244;-149;-141;-80
483952;1;1;0;475;-539;3872;-1244;-149;-150;-74
483962;1;1;0;475;-540;3874;-1248;-148;-154;-61
483972;1;1;0;475;-527;3872;-1244;-147;-161;-43
483982;1;1;0;475;-539;3861;-1246;-151;-149;-41
483992;1;1;0;475;-534;3849;-1263;-126;-164;-24
484002;1;1;0;475;-531;3838;-1280;-152;-136;-31
484012;1;1;0;475;-531;3847;-1262;-145;-155;-55
484022;1;1;0;475;-525;3865;-1286;-140;-154;-49
484032;1;1;0;475;-517;3864;-1275;-138;-149;-37
484042;1;1;0;475;-507;3881;-1245;-132;-138;-25
484052;1;1;0;475;-519;3870;-1270;-125;-143;-15
484062;1;1;0;475;-504;3836;-1264;-139;-142;-13
484072;1;1;0;475;-505;3836;-1288;-145;-155;-27
484082;1;1;0;475;-523;3834;-1285;-148;-173;-41
484092;1;1;0;475;-514;3851;-1283;-161;-165;-43
484102;1;1;0;475;-522;3855;-1285;-167;-150;-43
484112;1;1;0;475;-527;3877;-1289;-167;-129;-37
484122;1;1;0;475;-502;3860;-1285;-165;-109;-32
484132;1;1;0;475;-499;3860;-1252;-164;-98;-42
484142;1;1;0;475;-504;3857;-1267;-152;-98;-49
484152;1;1;0;475;-508;3871;-1271;-138;-90;-65
484162;1;1;0;475;-509;3865;-1245;-141;-80;-73
484172;1;1;0;475;-517;3857;-1261;-139;-76;-74
484182;1;1;0;475;-520;3854;-1259;-128;-78;-65
484192;1;1;0;475;-519;3859;-1248;-133;-85;-54
484202;1;1;0;475;-530;3854;-1275;-122;-91;-41
484212;1;1;0;475;-525;3857;-1260;-120;-103;-30
484222;1;1;0;475;-517;3856;-1266;-124;-114;-25
484232;1;1;0;475;-508;3858;-1265;-132;-127;-25
484242;1;1;0;475;-513;3874;-1251;-132;-144;-20
484252;1;1;0;475;-511;3872;-1247;-133;-142;-23
484262;1;1;0;475;-505;3869;-1242;-137;-147;-10
484272;1;1;0;475;-481;3855;-1264;-117;-149;-1
484282;1;1;0;475;-494;3866;-1265;-118;-143;7
484292;1;1;0;475;-511;3852;-1267;-122;-131;2
484302;1;1;0;475;-506;3850;-1286;-123;-113;-5
484312;1;1;0;475;-507;3844;-1296;-127;-110;-13
484322;1;1;0;475;-520;3833;-1283;-130;-106;-14
484332;1;1;0;475;-520;3848;-1281;-122;-110;-8
484342;1;1;0;475;-522;3865;-1264;-125;-115;-6
484352;1;1;0;475;-524;3865;-1254;-124;-126;-13
484362;1;1;0;476;-506;3871;-1232;-125;-131;-23
484372;1;1;0;476;-513;3886;-1236;-137;-131;-14
484382;1;1;0;476;-517;3875;-1239;-129;-127;3
484392;1;1;0;476;-498;3864;-1241;-131;-110;7
484402;1;1;0;476;-495;3841;-1272;-120;-94;3
484412;1;1;0;476;-500;3836;-1282;-124;-75;-10
484422;1;1;0;476;-482;3839;-1289;-117;-62;-24
484432;1;1;0;476;-483;3845;-1295;-124;-57;-35
484442;1;1;0;476;-508;3840;-1303;-123;-60;-54
484452;1;1;0;476;-501;3852;-1283;-136;-66;-71
484462;1;1;0;476;-508;3867;-1267;-130;-78;-75
484472;1;1;0;476;-502;3866;-1256;-137;-76;-77
484482;1;1;0;476;-497;3875;-1240;-136;-72;-71
484492;1;1;0;476;-493;3876;-1280;-143;-61;-64
484502;1;1;0;476;-487;3870;-1253;-143;-69;-52
484512;1;1;0;476;-482;3863;-1287;-138;-76;-52
484522;1;1;0;476;-478;3848;-1274;-142;-97;-58
484532;1;1;0;476;-501;3842;-1261;-144;-112;-66
484542;1;1;0;476;-508;3830;-1269;-131;-113;-74
484552;1;1;0;476;-507;3836;-1243;-130;-98;-80
484562;1;1;0;476;-517;3834;-1277;-133;-78;-81
484572;1;1;0;476;-496;3852;-1276;-142;-77;-81
484582;1;1;0;476;-488;3866;-1284;-141;-87;-74
484592;1;1;0;476;-500;3880;-1286;-145;-87;-62
484602;1;1;0;476;-494;3888;-1280;-147;-88;-48
484612;1;1;0;476;-501;3895;-1271;-146;-83;-44
484622;1;1;0;476;-494;3878;-1265;-137;-70;-48
484632;1;1;0;476;-507;3848;-1276;-135;-71;-37
484642;1;1;0;476;-489;3849;-1259;-135;-79;-41
484652;1;1;0;476;-503;3836;-1250;-137;-81;-53
484662;1;1;0;476;-499;3843;-1259;-127;-88;-55
484672;1;1;0;476;-505;3857;-1265;-128;-96;-55
484682;1;1;0;476;-504;3863;-1260;-137;-97;-42
484692;1;1;0;476;-497;3870;-1259;-127;-100;-27
484702;1;1;0;476;-488;3863;-1273;-137;-84;-21
484712;1;1;0;476;-509;3884;-1281;-144;-82;-20
484722;1;1;0;476;-507;3866;-1288;-135;-81;-29
484732;1;1;0;476;-502;3844;-1270;-138;-74;-48
484742;1;1;0;476;-508;3834;-1284;-127;-72;-65
484752;1;1;0;476;-499;3838;-1264;-125;-76;-79
484762;1;1;0;476;-498;3844;-1268;-123;-91;-80
484772;1;1;0;476;-503;3870;-1273;-125;-89;-66
484782;1;1;0;476;-508;3875;-1278;-134;-91;-59
484792;1;1;0;476;-488;3868;-1260;-132;-100;-51
484802;1;1;0;476;-496;3850;-1280;-137;-103;-63
484812;1;1;0;476;-477;3854;-1282;-144;-114;-73
484822;1;1;0;476;-492;3838;-1286;-138;-115;-90
484832;1;1;0;476;-493;3845;-1287;-143;-106;-99
484842;1;1;0;476;-491;3838;-1295;-158;-103;-112
484852;1;1;0;476;-494;3844;-1282;-147;-97;-114
484863;1;1;0;477;-498;3862;-1291;-147;-91;-112
484873;1;1;0;477;-496;3864;-1293;-152;-83;-118
484883;1;1;0;477;-490;3862;-1269;-153;-77;-117
484893;1;1;0;477;-489;3870;-1280;-152;-74;-115
484903;1;1;0;477;-487;3869;-1281;-150;-76;-114
484913;1;1;0;477;-492;3855;-1270;-156;-86;-110
484923;1;1;0;477;-510;3856;-1252;-155;-104;-99
484933;1;1;0;477;-500;3857;-1237;-153;-115;-93
484943;1;1;0;477;-493;3870;-1255;-147;-124;-90
484953;1;1;0;477;-497;3869;-1243;-138;-134;-85
484963;1;1;0;477;-494;3857;-1249;-145;-130;-81
484973;1;1;0;477;-501;3867;-1270;-145;-126;-67
484983;1;1;0;477;-504;3870;-1290;-139;-125;-65
484993;1;1;0;477;-498;3857;-1290;-137;-124;-69
485003;1;1;0;477;-494;3856;-1277;-143;-132;-75
485013;1;1;0;477;-501;3860;-1254;-144;-133;-76
485023;1;1;0;477;-487;3853;-1275;-157;-132;-69
485033;1;1;0;477;-489;3865;-1279;-149;-132;-61
485043;1;1;0;477;-501;3845;-1262;-145;-123;-58
485053;1;1;0;477;-488;3851;-1278;-148;-128;-71
485063;1;1;0;477;-493;3848;-1252;-156;-139;-75
485073;1;1;0;477;-496;3861;-1265;-143;-151;-76
485083;1;1;0;477;-487;3878;-1264;-142;-159;-76
485093;1;1;0;477;-484;3884;-1265;-147;-171;-83
485103;1;1;0;477;-496;3865;-1276;-145;-176;-80
485113;1;1;0;477;-493;3872;-1279;-149;-165;-82
485123;1;1;0;477;-503;3859;-1300;-152;-148;-76
485133;1;1;0;477;-513;3852;-1296;-152;-130;-81
485143;1;1;0;477;-494;3853;-1304;-156;-108;-94
485153;1;1;0;477;-502;3844;-1294;-158;-109;-103
485163;1;1;0;477;-494;3848;-1282;-171;-113;-117
485173;1;1;0;477;-489;3854;-1291;-178;-119;-120
485183;1;1;0;477;-499;3876;-1269;-165;-113;-115
485193;1;1;0;477;-505;3864;-1269;-166;-100;-106
485203;1;1;0;477;-507;3861;-1243;-155;-90;-98
485213;1;1;0;477;-514;3862;-1253;-149;-91;-90
485223;1;1;0;477;-518;3857;-1245;-136;-116;-83
485233;1;1;0;477;-515;3862;-1253;-144;-131;-76
485243;1;1;0;477;-512;3862;-1271;-150;-128;-75
485253;1;1;0;477;-505;3859;-1274;-145;-127;-78
485263;1;1;0;477;-512;3866;-1300;-151;-123;-80
485273;1;1;0;477;-508;3852;-1291;-139;-117;-78
485283;1;1;0;477;-512;3835;-1290;-148;-102;-79
485293;1;1;0;477;-511;3844;-1278;-141;-97;-86
485303;1;1;0;477;-498;3838;-1292;-146;-88;-93
485313;1;1;0;477;-508;3842;-1284;-149;-82;-106
485323;1;1;0;477;-501;3864;-1265;-155;-74;-101
485333;1;1;0;477;-521;3853;-1280;-150;-70;-90
485343;1;1;0;477;-519;3859;-1254;-142;-64;-81
485353;1;1;0;477;-501;3872;-1257;-143;-54;-81
485362;1;1;0;478;-499;3874;-1273;-154;-58;-87
485372;1;1;0;478;-502;3855;-1264;-154;-70;-89
485382;1;1;0;478;-502;3858;-1256;-146;-80;-93
485392;1;1;0;478;-501;3845;-1269;-152;-89;-94
485402;1;1;0;478;-510;3864;-1266;-155;-88;-84
485412;1;1;0;478;-498;3858;-1266;-164;-82;-76
485422;1;1;0;478;-484;3853;-1263;-157;-79;-81
485432;1;1;0;478;-504;3846;-1267;-167;-69;-85
485442;1;1;0;478;-493;3850;-1293;-176;-67;-103
485452;1;1;0;478;-508;3839;-1278;-174;-84;-120
485462;1;1;0;478;-522;3847;-1267;-178;-84;-128
485472;1;1;0;478;-522;3865;-1259;-179;-92;-131
485482;1;1;0;478;-514;3855;-1275;-188;-83;-119
485492;1;1;0;478;-521;3872;-1248;-186;-82;-117
485502;1;1;0;478;-517;3853;-1238;-175;-86;-114
485512;1;1;0;478;-519;3888;-1239;-168;-106;-109
485522;1;1;0;478;-514;3873;-1245;-174;-115;-103
485532;1;1;0;478;-504;3862;-1228;-173;-128;-95
485542;1;1;0;478;-513;3849;-1241;-170;-131;-88
485552;1;1;0;478;-516;3855;-1265;-166;-135;-86
485562;1;1;0;478;-501;3857;-1263;-162;-132;-95
485572;1;1;0;478;-514;3840;-1265;-155;-135;-86
485582;1;1;0;478;-519;3862;-1265;-161;-133;-80
485592;1;1;0;478;-517;3854;-1265;-152;-122;-69
485602;1;1;0;478;-520;3859;-1252;-155;-118;-68
485612;1;1;0;478;-521;3850;-1271;-158;-120;-73
485622;1;1;0;478;-510;3865;-1293;-159;-133;-93
485632;1;1;0;478;-527;3851;-1279;-169;-142;-107
485642;1;1;0;478;-525;3856;-1272;-173;-143;-110
485652;1;1;0;478;-528;3873;-1263;-170;-141;-108
485662;1;1;0;478;-520;3873;-1253;-164;-149;-96
485672;1;1;0;478;-520;3867;-1246;-162;-142;-83
485682;1;1;0;478;-514;3854;-1258;-158;-132;-70
485692;1;1;0;478;-517;3847;-1260;-154;-127;-83
485702;1;1;0;478;-512;3822;-1269;-167;-123;-102
485712;1;1;0;478;-510;3844;-1270;-182;-116;-119
485722;1;1;0;478;-527;3845;-1271;-180;-124;-134
485732;1;1;0;478;-538;3862;-1260;-172;-126;-140
485742;1;1;0;478;-534;3863;-1249;-174;-133;-141
485752;1;1;0;478;-543;3860;-1246;-183;-128;-123
485762;1;1;0;478;-543;3883;-1264;-181;-126;-103
485772;1;1;0;478;-529;3870;-1243;-169;-124;-88
485782;1;1;0;478;-530;3869;-1252;-169;-124;-90
485792;1;1;0;478;-542;3851;-1253;-165;-143;-104
485802;1;1;0;478;-527;3853;-1259;-171;-158;-111
485812;1;1;0;478;-523;3851;-1267;-168;-160;-107
485822;1;1;0;478;-539;3862;-1254;-163;-141;-89
485832;1;1;0;478;-534;3868;-1248;-166;-115;-86
485842;1;1;0;478;-541;3868;-1260;-170;-108;-84
485852;1;1;0;478;-543;3870;-1249;-165;-124;-87
485862;1;1;0;479;-530;3863;-1252;-164;-147;-85
485872;1;1;0;479;-539;3861;-1267;-156;-155;-82
485882;1;1;0;479;-537;3871;-1274;-152;-152;-76
485892;1;1;0;479;-519;3863;-1259;-143;-142;-71
485902;1;1;0;479;-520;3855;-1278;-150;-130;-64
485912;1;1;0;479;-528;3859;-1272;-159;-121;-53
485922;1;1;0;479;-525;3843;-1262;-156;-114;-47
485932;1;1;0;479;-517;3854;-1274;-155;-105;-48
485942;1;1;0;479;-505;3838;-1266;-163;-103;-55
485952;1;1;0;479;-518;3836;-1289;-167;-95;-71
485962;1;1;0;479;-522;3836;-1283;-169;-89;-80
485972;1;1;0;479;-538;3857;-1273;-161;-88;-96
485982;1;1;0;479;-527;3861;-1245;-166;-86;-98
485992;1;1;0;479;-531;3872;-1232;-154;-89;-91
486002;1;1;0;479;-525;3853;-1246;-153;-81;-80
486012;1;1;0;479;-532;3854;-1263;-157;-78;-86
486022;1;1;0;479;-531;3847;-1254;-159;-78;-99
486032;1;1;0;479;-524;3871;-1274;-156;-81;-103
486042;1;1;0;479;-534;3864;-1277;-157;-89;-96
486052;1;1;0;479;-548;3839;-1265;-161;-95;-87
486062;1;1;0;479;-555;3845;-1262;-156;-100;-89
486072;1;1;0;479;-545;3834;-1256;-153;-105;-98
486082;1;1;0;479;-541;3832;-1256;-141;-118;-101
486092;1;1;0;479;-537;3843;-1252;-141;-117;-96
486102;1;1;0;479;-538;3862;-1258;-132;-114;-82
486112;1;1;0;479;-532;3866;-1251;-149;-98;-65
486122;1;1;0;479;-538;3869;-1266;-144;-78;-69
486132;1;1;0;479;-534;3859;-1279;-141;-77;-78
486142;1;1;0;479;-543;3859;-1262;-143;-75;-89
486152;1;1;0;479;-548;3849;-1268;-144;-66;-99
486162;1;1;0;479;-552;3852;-1259;-152;-56;-101
486172;1;1;0;479;-552;3852;-1258;-144;-53;-102
486182;1;1;0;479;-549;3852;-1246;-140;-66;-100
486192;1;1;0;479;-525;3867;-1258;-135;-68;-93
486202;1;1;0;479;-530;3878;-1261;-129;-79;-82
486212;1;1;0;479;-525;3853;-1262;-129;-73;-77
486222;1;1;0;479;-518;3845;-1262;-134;-61;-81
486232;1;1;0;479;-514;3848;-1271;-154;-42;-87
486242;1;1;0;479;-530;3847;-1281;-168;-32;-100
486252;1;1;0;479;-520;3839;-1270;-164;-22;-118
486262;1;1;0;479;-549;3832;-1275;-178;-24;-142
486272;1;1;0;479;-547;3837;-1258;-179;-37;-164
486282;1;1;0;479;-545;3858;-1277;-175;-47;-162
486292;1;1;0;479;-555;3863;-1237;-168;-53;-146
486302;1;1;0;479;-542;3876;-1242;-175;-53;-131
486312;1;1;0;479;-536;3869;-1246;-163;-56;-119
486322;1;1;0;479;-545;3867;-1236;-168;-61;-125
486332;1;1;0;479;-546;3860;-1257;-176;-54;-126
486342;1;1;0;479;-534;3852;-1261;-171;-59;-121
486352;1;1;0;479;-543;3862;-1261;-176;-64;-114
486362;1;1;0;480;-551;3868;-1255;-182;-77;-104
486372;1;1;0;480;-537;3850;-1250;-165;-95;-97
486382;1;1;0;480;-557;3860;-1230;-159;-100;-85
486392;1;1;0;480;-539;3863;-1229;-155;-109;-82
486402;1;1;0;480;-537;3862;-1247;-138;-115;-79
486412;1;1;0;480;-516;3856;-1245;-132;-121;-76
486422;1;1;0;480;-534;3865;-1257;-140;-127;-82
486432;1;1;0;480;-534;3856;-1262;-152;-128;-83
486442;1;1;0;480;-547;3850;-1266;-157;-131;-70
486452;1;1;0;480;-552;3861;-1258;-153;-116;-61
486462;1;1;0;480;-550;3848;-1266;-164;-82;-50
486472;1;1;0;480;-539;3856;-1255;-155;-64;-44
486482;1;1;0;480;-527;3843;-1263;-147;-65;-50
486492;1;1;0;480;-526;3847;-1263;-151;-74;-73
486502;1;1;0;480;-527;3852;-1255;-155;-68;-98
486512;1;1;0;480;-538;3849;-1255;-147;-60;-118
486522;1;1;0;480;-534;3864;-1270;-159;-41;-126
486532;1;1;0;480;-552;3868;-1267;-161;-26;-114
486542;1;1;0;480;-553;3876;-1262;-167;-7;-93
486552;1;1;0;480;-551;3871;-1252;-170;13;-72
486562;1;1;0;480;-565;3873;-1239;-158;19;-61
486572;1;1;0;480;-560;3865;-1248;-159;13;-54
486582;1;1;0;480;-564;3865;-1235;-160;-9;-57
486592;1;1;0;480;-552;3855;-1228;-157;-25;-55
486602;1;1;0;480;-553;3845;-1201;-150;-30;-72
486612;1;1;0;480;-546;3852;-1201;-159;-31;-82
486622;1;1;0;480;-530;3852;-1210;-169;-49;-97
486632;1;1;0;480;-552;3867;-1225;-173;-84;-103
486642;1;1;0;480;-540;3875;-1246;-181;-102;-107
486652;1;1;0;480;-551;3863;-1251;-170;-118;-103
486662;1;1;0;480;-552;3865;-1229;-166;-127;-96
486672;1;1;0;480;-539;3858;-1221;-154;-139;-93
486682;1;1;0;480;-541;3851;-1208;-158;-148;-97
486692;1;1;0;480;-544;3868;-1240;-153;-155;-91
486702;1;1;0;480;-548;3864;-1241;-157;-162;-85
486712;1;1;0;480;-539;3858;-1247;-151;-164;-83
486722;1;1;0;480;-553;3854;-1238;-162;-158;-90
486732;1;1;0;480;-539;3849;-1277;-161;-148;-93
486742;1;1;0;480;-553;3858;-1275;-160;-144;-91
486752;1;1;0;480;-541;3872;-1269;-175;-136;-88
486762;1;1;0;480;-534;3852;-1261;-179;-123;-75
486772;1;1;0;480;-549;3856;-1258;-169;-135;-67
486782;1;1;0;480;-550;3857;-1244;-150;-135;-70
486792;1;1;0;480;-535;3869;-1226;-154;-131;-69
486802;1;1;0;480;-535;3854;-1246;-159;-124;-64
486812;1;1;0;480;-535;3846;-1240;-148;-122;-60
486822;1;1;0;480;-524;3852;-1246;-163;-113;-64
486832;1;1;0;480;-539;3858;-1242;-164;-107;-70
486842;1;1;0;480;-520;3857;-1247;-164;-89;-77
486852;1;1;0;480;-524;3854;-1278;-159;-84;-80
486863;1;1;0;481;-530;3848;-1278;-171;-65;-83
486873;1;1;0;481;-533;3858;-1276;-157;-55;-79
486883;1;1;0;481;-534;3869;-1262;-148;-55;-83
486893;1;1;0;481;-542;3871;-1250;-155;-62;-90
486903;1;1;0;481;-545;3856;-1233;-144;-75;-89
486913;1;1;0;481;-547;3854;-1223;-137;-84;-95
486923;1;1;0;481;-563;3847;-1224;-146;-97;-96
486933;1;1;0;481;-562;3858;-1225;-151;-104;-93
486943;1;1;0;481;-555;3843;-1230;-147;-113;-97
486953;1;1;0;481;-554;3858;-1249;-145;-126;-107
486963;1;1;0;481;-554;3846;-1258;-157;-130;-104
486973;1;1;0;481;-548;3851;-1265;-154;-124;-98
486983;1;1;0;481;-554;3876;-1255;-144;-135;-87
486993;1;1;0;481;-537;3883;-1281;-146;-139;-80
487003;1;1;0;481;-562;3881;-1266;-148;-136;-80
487013;1;1;0;481;-569;3868;-1260;-144;-118;-72
487023;1;1;0;481;-586;3856;-1249;-129;-110;-71
487033;1;1;0;481;-561;3845;-1260;-126;-107;-72
487043;1;1;0;481;-560;3850;-1244;-138;-99;-79
487053;1;1;0;481;-563;3849;-1276;-138;-108;-73
487063;1;1;0;481;-554;3842;-1281;-151;-123;-66
487073;1;1;0;481;-556;3853;-1272;-144;-127;-59
487083;1;1;0;481;-548;3853;-1247;-151;-106;-51
487093;1;1;0;481;-558;3838;-1260;-146;-88;-45
487103;1;1;0;481;-567;3832;-1277;-141;-66;-45
487113;1;1;0;481;-560;3838;-1264;-137;-78;-43
487123;1;1;0;481;-556;3852;-1261;-138;-79;-50
487133;1;1;0;481;-558;3865;-1246;-134;-89;-56
487143;1;1;0;481;-559;3867;-1246;-131;-85;-54
487153;1;1;0;481;-550;3881;-1250;-147;-94;-55
487163;1;1;0;481;-561;3878;-1234;-142;-100;-45
487173;1;1;0;481;-546;3873;-1257;-134;-94;-32
487183;1;1;0;481;-551;3854;-1245;-130;-104;-37
487193;1;1;0;481;-559;3824;-1255;-125;-118;-46
487203;1;1;0;481;-555;3841;-1252;-134;-128;-56
487213;1;1;0;481;-561;3847;-1275;-133;-143;-45
487223;1;1;0;481;-590;3861;-1255;-143;-139;-26
487233;1;1;0;481;-573;3862;-1245;-129;-141;1
487243;1;1;0;481;-565;3866;-1244;-130;-143;32
487253;1;1;0;481;-549;3875;-1234;-116;-141;51
487263;1;1;0;481;-546;3874;-1231;-117;-140;52
487273;1;1;0;481;-527;3873;-1255;-121;-138;36
487283;1;1;0;481;-533;3847;-1261;-125;-133;22
487293;1;1;0;481;-538;3841;-1263;-126;-133;6
487303;1;1;0;481;-555;3838;-1249;-150;-120;-10
487313;1;1;0;481;-565;3847;-1258;-144;-118;-21
487323;1;1;0;481;-567;3834;-1250;-155;-100;-30
487333;1;1;0;481;-575;3845;-1245;-150;-92;-20
487343;1;1;0;481;-571;3868;-1246;-145;-89;-22
487353;1;1;0;481;-554;3876;-1263;-147;-89;-31
487362;1;1;0;482;-560;3886;-1252;-145;-83;-37
487372;1;1;0;482;-561;3873;-1243;-138;-84;-36
487382;1;1;0;482;-559;3869;-1247;-133;-87;-36
487392;1;1;0;482;-566;3870;-1233;-129;-92;-35
487402;1;1;0;482;-568;3856;-1228;-140;-89;-45
487412;1;1;0;482;-562;3852;-1221;-147;-101;-47
487422;1;1;0;482;-566;3863;-1239;-144;-110;-40
487432;1;1;0;482;-560;3868;-1234;-140;-114;-21
487442;1;1;0;482;-545;3879;-1228;-138;-125;-6
487452;1;1;0;482;-536;3870;-1225;-130;-134;3
487462;1;1;0;482;-547;3863;-1215;-124;-153;-1
487472;1;1;0;482;-544;3846;-1247;-122;-162;-3
487482;1;1;0;482;-550;3862;-1237;-126;-164;-2
487492;1;1;0;482;-556;3849;-1245;-130;-159;-4
487502;1;1;0;482;-552;3865;-1250;-121;-162;14
487512;1;1;0;482;-561;3887;-1271;-121;-156;18
487522;1;1;0;482;-543;3876;-1245;-118;-153;29
487532;1;1;0;482;-518;3869;-1245;-112;-152;36
487542;1;1;0;482;-512;3871;-1248;-119;-150;29
487552;1;1;0;482;-524;3854;-1258;-123;-147;18
487562;1;1;0;482;-522;3856;-1283;-119;-149;26
487572;1;1;0;482;-523;3844;-1269;-130;-130;26
487582;1;1;0;482;-526;3838;-1265;-132;-123;21
487592;1;1;0;482;-530;3834;-1263;-127;-128;-7
487602;1;1;0;482;-525;3844;-1245;-125;-133;-13
487612;1;1;0;482;-518;3853;-1252;-127;-138;-10
487622;1;1;0;482;-520;3879;-1244;-129;-139;6
487632;1;1;0;482;-526;3879;-1269;-119;-151;13
487642;1;1;0;482;-526;3867;-1280;-118;-148;12
487652;1;1;0;482;-521;3864;-1265;-113;-148;13
487662;1;1;0;482;-505;3853;-1282;-122;-136;11
487672;1;1;0;482;-512;3854;-1267;-123;-118;4
487682;1;1;0;482;-496;3850;-1275;-115;-104;-7
487692;1;1;0;482;-499;3837;-1275;-117;-107;-18
487702;1;1;0;482;-512;3824;-1254;-120;-122;-34
487712;1;1;0;482;-510;3844;-1276;-123;-133;-32
487722;1;1;0;482;-500;3841;-1275;-113;-130;-34
487732;1;1;0;482;-522;3851;-1269;-122;-99;-34
487742;1;1;0;482;-494;3862;-1281;-115;-71;-33
487752;1;1;0;482;-503;3864;-1266;-126;-69;-29
487762;1;1;0;482;-517;3853;-1288;-132;-79;-35
487772;1;1;0;482;-533;3872;-1262;-124;-88;-36
487782;1;1;0;482;-513;3872;-1255;-128;-77;-36
487792;1;1;0;482;-516;3853;-1262;-117;-64;-29
487802;1;1;0;482;-505;3849;-1253;-122;-61;-24
487812;1;1;0;482;-508;3859;-1256;-122;-65;-17
487822;1;1;0;482;-498;3855;-1258;-121;-69;-11
487832;1;1;0;482;-499;3860;-1244;-123;-69;-17
487842;1;1;0;482;-508;3856;-1266;-118;-84;-26
487852;1;1;0;482;-504;3852;-1268;-126;-89;-36
487862;1;1;0;483;-501;3850;-1249;-124;-100;-40
487872;1;1;0;483;-487;3867;-1247;-129;-99;-37
487882;1;1;0;483;-498;3866;-1236;-135;-97;-32
487892;1;1;0;483;-484;3864;-1236;-141;-84;-32
487902;1;1;0;483;-486;3866;-1269;-144;-79;-35
487912;1;1;0;483;-474;3862;-1270;-137;-82;-53
487922;1;1;0;483;-491;3855;-1291;-151;-74;-61
487932;1;1;0;483;-491;3858;-1270;-146;-69;-58
487942;1;1;0;483;-502;3848;-1253;-145;-72;-68
487952;1;1;0;483;-493;3863;-1264;-140;-69;-64
487962;1;1;0;483;-505;3849;-1254;-149;-73;-65
487972;1;1;0;483;-511;3854;-1277;-156;-86;-64
487982;1;1;0;483;-514;3865;-1243;-148;-102;-55
487992;1;1;0;483;-495;3871;-1239;-149;-106;-39
488002;1;1;0;483;-489;3875;-1272;-158;-96;-27
488012;1;1;0;483;-484;3882;-1290;-157;-98;-33
488022;1;1;0;483;-484;3851;-1298;-168;-89;-47
488032;1;1;0;483;-497;3830;-1299;-169;-72;-79
488042;1;1;0;483;-491;3831;-1274;-171;-59;-115
488052;1;1;0;483;-492;3843;-1276;-170;-53;-129
488062;1;1;0;483;-506;3843;-1257;-163;-44;-124
488072;1;1;0;483;-512;3867;-1250;-159;-35;-120
488082;1;1;0;483;-504;3850;-1236;-167;-36;-114
488092;1;1;0;483;-519;3859;-1238;-162;-51;-115
488102;1;1;0;483;-512;3878;-1256;-163;-66;-114
488112;1;1;0;483;-514;3892;-1246;-149;-75;-88
488122;1;1;0;483;-505;3887;-1241;-151;-84;-64
488132;1;1;0;483;-502;3879;-1238;-137;-97;-57
488142;1;1;0;483;-492;3848;-1243;-150;-97;-55
488152;1;1;0;483;-496;3843;-1267;-147;-96;-68
488162;1;1;0;483;-494;3840;-1263;-154;-95;-80
488172;1;1;0;483;-499;3851;-1291;-162;-87;-92
488182;1;1;0;483;-509;3858;-1268;-152;-82;-90
488192;1;1;0;483;-509;3885;-1261;-155;-82;-79
488202;1;1;0;483;-495;3879;-1254;-155;-80;-67
488212;1;1;0;483;-506;3880;-1254;-150;-94;-55
488222;1;1;0;483;-503;3865;-1250;-160;-101;-49
488232;1;1;0;483;-490;3851;-1256;-153;-114;-61
488242;1;1;0;483;-501;3835;-1235;-147;-122;-71
488252;1;1;0;483;-494;3843;-1274;-163;-118;-79
488262;1;1;0;483;-515;3859;-1269;-164;-124;-88
488272;1;1;0;483;-506;3860;-1274;-166;-127;-91
488282;1;1;0;483;-503;3852;-1285;-172;-112;-83
488292;1;1;0;483;-518;3881;-1284;-166;-95;-86
488302;1;1;0;483;-518;3874;-1287;-160;-90;-86
488312;1;1;0;483;-508;3848;-1269;-157;-80;-85
488322;1;1;0;483;-502;3856;-1277;-163;-73;-94
488332;1;1;0;483;-515;3862;-1252;-157;-91;-96
488342;1;1;0;483;-515;3858;-1229;-160;-103;-99
488352;1;1;0;483;-510;3860;-1224;-161;-104;-92
488362;1;1;0;484;-521;3864;-1217;-147;-102;-85
488372;1;1;0;484;-510;3860;-1259;-152;-107;-82
488382;1;1;0;484;-511;3868;-1260;-153;-118;-76
488392;1;1;0;484;-508;3871;-1255;-142;-137;-68
488402;1;1;0;484;-509;3874;-1266;-149;-146;-73
488412;1;1;0;484;-524;3855;-1272;-157;-143;-72
488422;1;1;0;484;-536;3852;-1289;-154;-132;-74
488432;1;1;0;484;-522;3858;-1267;-145;-128;-83
488442;1;1;0;484;-522;3865;-1276;-143;-116;-75
488452;1;1;0;484;-522;3867;-1260;-140;-104;-73
488462;1;1;0;484;-505;3863;-1268;-136;-88;-75
488472;1;1;0;484;-504;3866;-1248;-129;-99;-78
488482;1;1;0;484;-503;3863;-1268;-137;-103;-74
488492;1;1;0;484;-510;3869;-1253;-142;-104;-65
488502;1;1;0;484;-522;3860;-1269;-144;-97;-52
488512;1;1;0;484;-522;3862;-1265;-140;-86;-38
488522;1;1;0;484;-521;3863;-1240;-140;-80;-48
488532;1;1;0;484;-513;3857;-1278;-146;-84;-61
488542;1;1;0;484;-517;3860;-1270;-153;-90;-73
488552;1;1;0;484;-504;3861;-1262;-156;-99;-86
488562;1;1;0;484;-516;3857;-1251;-144;-108;-90
488572;1;1;0;484;-522;3872;-1235;-150;-102;-84
488582;1;1;0;484;-522;3865;-1256;-150;-94;-86
488592;1;1;0;484;-513;3862;-1265;-163;-88;-78
488602;1;1;0;484;-529;3854;-1248;-158;-91;-78
488612;1;1;0;484;-520;3861;-1279;-159;-92;-74
488622;1;1;0;484;-528;3861;-1269;-164;-91;-77
488632;1;1;0;484;-524;3858;-1253;-153;-82;-79
488642;1;1;0;484;-505;3858;-1244;-154;-81;-78
488652;1;1;0;484;-516;3865;-1268;-144;-75;-67
488662;1;1;0;484;-518;3886;-1244;-137;-83;-57
488672;1;1;0;484;-505;3862;-1246;-147;-90;-60
488682;1;1;0;484;-508;3859;-1238;-150;-103;-58
488692;1;1;0;484;-534;3856;-1231;-152;-113;-62
488702;1;1;0;484;-505;3858;-1257;-147;-113;-68
488712;1;1;0;484;-515;3860;-1250;-148;-103;-74
488722;1;1;0;484;-516;3865;-1274;-152;-109;-79
488732;1;1;0;484;-513;3846;-1266;-143;-103;-78
488742;1;1;0;484;-516;3858;-1272;-150;-102;-71
488752;1;1;0;484;-507;3859;-1272;-156;-97;-81
488762;1;1;0;484;-505;3866;-1252;-143;-103;-87
488772;1;1;0;484;-501;3852;-1260;-139;-107;-94
488782;1;1;0;484;-512;3849;-1257;-149;-103;-89
488792;1;1;0;484;-511;3849;-1243;-158;-101;-96
488802;1;1;0;484;-525;3850;-1266;-157;-108;-106
488812;1;1;0;484;-529;3849;-1255;-159;-107;-108
488822;1;1;0;484;-525;3842;-1261;-163;-95;-106
488832;1;1;0;484;-520;3855;-1284;-156;-92;-102
488842;1;1;0;484;-521;3872;-1276;-161;-81;-97
488852;1;1;0;484;-527;3884;-1272;-159;-67;-87
488862;1;1;0;485;-528;3867;-1249;-159;-62;-75
488872;1;1;0;485;-533;3845;-1254;-155;-62;-86
488882;1;1;0;485;-534;3846;-1229;-148;-74;-94
488892;1;1;0;485;-523;3856;-1237;-153;-77;-95
488902;1;1;0;485;-524;3867;-1249;-155;-83;-98
488912;1;1;0;485;-522;3870;-1265;-166;-89;-101
488922;1;1;0;485;-531;3881;-1261;-161;-102;-103
488932;1;1;0;485;-536;3866;-1260;-154;-109;-77
488942;1;1;0;485;-523;3865;-1258;-157;-94;-50
488952;1;1;0;485;-507;3856;-1233;-152;-90;-49
488962;1;1;0;485;-509;3846;-1239;-143;-103;-68
488972;1;1;0;485;-512;3844;-1257;-147;-120;-90
488982;1;1;0;485;-513;3835;-1257;-146;-135;-102
488992;1;1;0;485;-523;3853;-1257;-159;-129;-89
489002;1;1;0;485;-520;3866;-1256;-156;-108;-76
489012;1;1;0;485;-519;3877;-1272;-156;-78;-62
489022;1;1;0;485;-514;3875;-1258;-154;-60;-58
489032;1;1;0;485;-499;3858;-1277;-146;-74;-64
489042;1;1;0;485;-512;3877;-1266;-155;-82;-68
489052;1;1;0;485;-528;3868;-1264;-153;-84;-74
489062;1;1;0;485;-522;3868;-1238;-152;-74;-79
489072;1;1;0;485;-527;3851;-1232;-154;-59;-82
489082;1;1;0;485;-519;3849;-1259;-156;-45;-85
489092;1;1;0;485;-521;3861;-1269;-153;-36;-89
489102;1;1;0;485;-518;3863;-1244;-151;-28;-88
489112;1;1;0;485;-520;3849;-1258;-153;-28;-97
489122;1;1;0;485;-531;3859;-1277;-147;-36;-99
489132;1;1;0;485;-518;3871;-1251;-155;-39;-92
489142;1;1;0;485;-526;3872;-1242;-146;-41;-88
489152;1;1;0;485;-524;3857;-1245;-150;-42;-78
489162;1;1;0;485;-521;3860;-1241;-145;-50;-71
489172;1;1;0;485;-514;3865;-1224;-145;-65;-74
489182;1;1;0;485;-510;3864;-1254;-151;-78;-83
489192;1;1;0;485;-520;3856;-1263;-162;-92;-88
489202;1;1;0;485;-522;3839;-1240;-162;-118;-106
489212;1;1;0;485;-528;3864;-1250;-159;-137;-108
489222;1;1;0;485;-528;3849;-1256;-157;-136;-104
489232;1;1;0;485;-532;3848;-1235;-164;-123;-98
489242;1;1;0;485;-523;3851;-1257;-156;-123;-91
489252;1;1;0;485;-519;3862;-1255;-154;-129;-100
489262;1;1;0;485;-535;3861;-1248;-158;-126;-102
489272;1;1;0;485;-522;3869;-1244;-155;-117;-98
489282;1;1;0;485;-526;3878;-1265;-145;-111;-79
489292;1;1;0;485;-537;3858;-1276;-153;-89;-70
489302;1;1;0;485;-530;3871;-1262;-145;-86;-60
489312;1;1;0;485;-522;3867;-1273;-154;-81;-55
489322;1;1;0;485;-522;3848;-1246;-149;-79;-52
489332;1;1;0;485;-515;3848;-1265;-155;-78;-56
489342;1;1;0;485;-514;3851;-1275;-161;-77;-59
489352;1;1;0;485;-497;3850;-1276;-156;-72;-66
489362;1;1;0;486;-495;3850;-1259;-162;-68;-78
489372;1;1;0;486;-503;3853;-1255;-155;-70;-86
489382;1;1;0;486;-524;3857;-1255;-161;-66;-89
489392;1;1;0;486;-510;3857;-1266;-162;-57;-92
489402;1;1;0;486;-515;3853;-1239;-154;-54;-103
489412;1;1;0;486;-536;3863;-1263;-152;-58;-104
489422;1;1;0;486;-525;3857;-1261;-154;-64;-96
489432;1;1;0;486;-533;3871;-1264;-153;-67;-75
489442;1;1;0;486;-532;3879;-1229;-141;-81;-63
489452;1;1;0;486;-511;3872;-1244;-144;-91;-54
489462;1;1;0;486;-515;3872;-1226;-145;-96;-55
489472;1;1;0;486;-523;3860;-1237;-140;-99;-61
489482;1;1;0;486;-519;3857;-1265;-126;-105;-71
489492;1;1;0;486;-541;3870;-1264;-129;-104;-78
489502;1;1;0;486;-528;3856;-1247;-132;-106;-65
489512;1;1;0;486;-537;3856;-1244;-134;-101;-64
489522;1;1;0;486;-524;3854;-1264;-129;-102;-58
489532;1;1;0;486;-517;3854;-1276;-133;-98;-65
489542;1;1;0;486;-498;3850;-1249;-145;-85;-71
489552;1;1;0;486;-503;3851;-1281;-145;-74;-72
489562;1;1;0;486;-508;3845;-1292;-145;-71;-78
489572;1;1;0;486;-505;3857;-1293;-159;-64;-91
489582;1;1;0;486;-530;3864;-1268;-157;-65;-94
489592;1;1;0;486;-523;3849;-1246;-160;-51;-94
489602;1;1;0;486;-530;3843;-1241;-145;-39;-96
489612;1;1;0;486;-528;3856;-1246;-161;-39;-103
489622;1;1;0;486;-527;3861;-1232;-154;-63;-113
489632;1;1;0;486;-520;3869;-1244;-163;-80;-112
489642;1;1;0;486;-528;3867;-1246;-162;-97;-99
489652;1;1;0;486;-536;3865;-1258;-153;-102;-78
489662;1;1;0;486;-544;3862;-1241;-149;-102;-61
489672;1;1;0;486;-544;3864;-1263;-149;-100;-51
489682;1;1;0;486;-539;3863;-1265;-136;-115;-40
489692;1;1;0;486;-515;3862;-1244;-135;-120;-46
489702;1;1;0;486;-522;3858;-1276;-142;-116;-65
489712;1;1;0;486;-524;3862;-1257;-139;-117;-71
489722;1;1;0;486;-519;3861;-1254;-132;-113;-63
489732;1;1;0;486;-519;3873;-1266;-142;-93;-45
489742;1;1;0;486;-525;3861;-1267;-124;-70;-43
489752;1;1;0;486;-512;3858;-1252;-141;-82;-47
489762;1;1;0;486;-511;3837;-1271;-135;-79;-76
489772;1;1;0;486;-521;3832;-1275;-149;-68;-94
489782;1;1;0;486;-523;3834;-1263;-141;-66;-100
489792;1;1;0;486;-549;3844;-1275;-157;-61;-100
489802;1;1;0;486;-543;3857;-1256;-157;-53;-80
489812;1;1;0;486;-542;3865;-1240;-163;-48;-63
489822;1;1;0;486;-526;3872;-1242;-148;-53;-55
489832;1;1;0;486;-526;3881;-1241;-143;-60;-60
489842;1;1;0;486;-513;3870;-1256;-141;-72;-68
489852;1;1;0;486;-514;3858;-1246;-145;-71;-70
489862;1;1;0;487;-519;3846;-1259;-144;-70;-72
489872;1;1;0;487;-531;3834;-1244;-148;-73;-78
489882;1;1;0;487;-532;3849;-1256;-151;-75;-79
489892;1;1;0;487;-528;3850;-1262;-150;-82;-72
489902;1;1;0;487;-512;3864;-1267;-155;-98;-66
489912;1;1;0;487;-529;3869;-1257;-142;-105;-62
489922;1;1;0;487;-522;3864;-1245;-143;-112;-52
489932;1;1;0;487;-522;3877;-1241;-144;-105;-40
489942;1;1;0;487;-525;3866;-1244;-137;-95;-25
489952;1;1;0;487;-524;3865;-1257;-137;-94;-14
489962;1;1;0;487;-518;3852;-1245;-127;-98;-14
489972;1;1;0;487;-517;3843;-1252;-134;-100;-21
489982;1;1;0;487;-518;3848;-1266;-143;-97;-24
489992;1;1;0;487;-510;3860;-1255;-139;-106;-25
490002;1;1;0;487;-516;3866;-1268;-145;-102;-17
490012;1;1;0;487;-519;3873;-1262;-133;-110;-15
490022;1;1;0;487;-509;3866;-1250;-134;-110;-7
490032;1;1;0;487;-524;3841;-1222;-134;-110;-6
490042;1;1;0;487;-517;3851;-1233;-132;-119;-11
490052;1;1;0;487;-516;3853;-1242;-134;-126;-14
490062;1;1;0;487;-535;3850;-1240;-136;-120;-16
490072;1;1;0;487;-524;3857;-1243;-132;-126;-16
490082;1;1;0;487;-524;3862;-1258;-135;-118;-14
490092;1;1;0;487;-519;3875;-1273;-135;-114;-1
490102;1;1;0;487;-512;3871;-1261;-135;-116;5
490112;1;1;0;487;-499;3868;-1257;-129;-118;10
490122;1;1;0;487;-498;3858;-1266;-123;-116;18
490132;1;1;0;487;-502;3869;-1267;-127;-115;19
490142;1;1;0;487;-499;3850;-1248;-124;-128;12
490152;1;1;0;487;-520;3847;-1258;-123;-130;6
490162;1;1;0;487;-502;3854;-1254;-134;-131;-2
490172;1;1;0;487;-507;3866;-1233;-128;-129;-4
490182;1;1;0;487;-521;3860;-1259;-129;-132;-5
490192;1;1;0;487;-518;3870;-1264;-130;-127;7
490202;1;1;0;487;-509;3868;-1270;-133;-112;14
490212;1;1;0;487;-525;3859;-1274;-133;-106;6
490222;1;1;0;487;-499;3866;-1281;-128;-92;-4
490232;1;1;0;487;-504;3862;-1280;-129;-76;-18
490242;1;1;0;487;-514;3862;-1269;-133;-69;-24
490252;1;1;0;487;-516;3858;-1268;-136;-62;-38
490262;1;1;0;487;-517;3857;-1260;-134;-74;-52
490272;1;1;0;487;-533;3866;-1255;-133;-76;-65
490282;1;1;0;487;-533;3862;-1257;-149;-71;-53
490292;1;1;0;487;-520;3873;-1250;-142;-65;-41
490302;1;1;0;487;-516;3852;-1243;-154;-70;-40
490312;1;1;0;487;-513;3860;-1259;-152;-84;-46
490322;1;1;0;487;-506;3842;-1268;-149;-105;-57
490332;1;1;0;487;-500;3862;-1249;-155;-113;-59
490342;1;1;0;487;-506;3848;-1259;-156;-109;-51
490352;1;1;0;487;-509;3861;-1261;-139;-100;-42
490363;1;1;0;488;-505;3866;-1263;-129;-104;-38
490373;1;1;0;488;-503;3867;-1265;-130;-115;-33
490383;1;1;0;488;-481;3866;-1264;-126;-139;-37
490393;1;1;0;488;-490;3871;-1276;-121;-149;-39
490403;1;1;0;488;-493;3872;-1268;-127;-132;-28
490413;1;1;0;488;-506;3869;-1290;-124;-112;-22
490423;1;1;0;488;-512;3867;-1294;-131;-97;-20
490433;1;1;0;488;-514;3847;-1294;-129;-89;-16
490443;1;1;0;488;-491;3854;-1275;-123;-82;-14
490453;1;1;0;488;-497;3852;-1247;-121;-89;-23
490463;1;1;0;488;-479;3861;-1255;-120;-94;-23
490473;1;1;0;488;-468;3860;-1266;-118;-95;-19
490483;1;1;0;488;-481;3861;-1259;-120;-90;-15
490493;1;1;0;488;-492;3860;-1269;-128;-89;-20
490503;1;1;0;488;-486;3856;-1276;-134;-74;-33
490513;1;1;0;488;-503;3857;-1276;-125;-59;-43
490523;1;1;0;488;-488;3847;-1252;-130;-50;-55
490533;1;1;0;488;-484;3850;-1290;-139;-50;-60
490543;1;1;0;488;-498;3853;-1283;-137;-62;-75
490553;1;1;0;488;-499;3858;-1267;-144;-71;-72
490563;1;1;0;488;-485;3859;-1255;-132;-71;-64
490573;1;1;0;488;-496;3876;-1257;-134;-59;-46
490583;1;1;0;488;-491;3873;-1236;-137;-61;-46
490593;1;1;0;488;-482;3867;-1243;-132;-64;-42
490603;1;1;0;488;-491;3855;-1257;-145;-75;-52
490613;1;1;0;488;-489;3861;-1265;-138;-86;-61
490623;1;1;0;488;-499;3850;-1264;-134;-81;-67
490633;1;1;0;488;-512;3861;-1267;-141;-72;-74
490643;1;1;0;488;-506;3855;-1276;-149;-65;-71
490653;1;1;0;488;-504;3867;-1280;-144;-60;-69
490663;1;1;0;488;-506;3866;-1251;-151;-63;-72
490673;1;1;0;488;-496;3852;-1248;-145;-60;-72
490683;1;1;0;488;-492;3866;-1260;-138;-59;-73
490693;1;1;0;488;-497;3876;-1241;-147;-73;-75
490703;1;1;0;488;-486;3874;-1250;-150;-73;-60
490713;1;1;0;488;-497;3857;-1251;-150;-77;-53
490723;1;1;0;488;-500;3857;-1235;-146;-80;-42
490733;1;1;0;488;-483;3866;-1241;-139;-96;-40
490743;1;1;0;488;-489;3873;-1263;-137;-110;-42
490753;1;1;0;488;-502;3870;-1259;-144;-115;-37
490763;1;1;0;488;-478;3870;-1257;-132;-110;-31
490773;1;1;0;488;-472;3855;-1274;-128;-104;-38
490783;1;1;0;488;-479;3849;-1288;-135;-104;-47
490793;1;1;0;488;-481;3834;-1280;-130;-104;-64
490803;1;1;0;488;-484;3845;-1292;-142;-94;-80
490813;1;1;0;488;-478;3849;-1292;-155;-83;-84
490823;1;1;0;488;-476;3860;-1278;-150;-87;-82
490833;1;1;0;488;-488;3869;-1279;-153;-80;-77
490843;1;1;0;488;-489;3861;-1260;-155;-82;-81
490853;1;1;0;488;-481;3857;-1265;-158;-78;-82
490862;1;1;0;489;-485;3866;-1256;-146;-84;-87
490872;1;1;0;489;-495;3869;-1266;-152;-77;-83
490882;1;1;0;489;-495;3862;-1274;-147;-78;-76
490892;1;1;0;489;-493;3858;-1272;-144;-81;-67
490902;1;1;0;489;-485;3867;-1257;-148;-86;-62
490912;1;1;0;489;-487;3853;-1242;-154;-89;-69
490922;1;1;0;489;-482;3857;-1238;-159;-109;-67
490932;1;1;0;489;-485;3876;-1246;-158;-123;-60
490942;1;1;0;489;-478;3864;-1267;-159;-140;-62
490952;1;1;0;489;-475;3870;-1281;-154;-140;-64
490962;1;1;0;489;-495;3871;-1266;-146;-137;-54
490972;1;1;0;489;-489;3860;-1282;-143;-126;-44
490982;1;1;0;489;-484;3865;-1289;-143;-113;-34
490992;1;1;0;489;-481;3851;-1293;-141;-108;-36
491002;1;1;0;489;-493;3847;-1286;-147;-97;-44
491012;1;1;0;489;-485;3836;-1277;-155;-113;-56
491022;1;1;0;489;-490;3842;-1296;-161;-117;-56
491032;1;1;0;489;-478;3849;-1247;-159;-121;-54
491042;1;1;0;489;-478;3856;-1253;-149;-116;-53
491052;1;1;0;489;-481;3856;-1250;-142;-112;-43
491062;1;1;0;489;-472;3857;-1274;-149;-116;-43
491072;1;1;0;489;-474;3860;-1270;-148;-132;-46
491082;1;1;0;489;-487;3850;-1258;-152;-133;-59
491092;1;1;0;489;-489;3852;-1282;-151;-119;-67
491102;1;1;0;489;-488;3861;-1300;-158;-90;-79
491112;1;1;0;489;-493;3860;-1297;-165;-68;-91
491122;1;1;0;489;-498;3850;-1269;-160;-53;-96
491132;1;1;0;489;-485;3861;-1287;-148;-43;-91
491142;1;1;0;489;-496;3853;-1297;-147;-41;-89
491152;1;1;0;489;-491;3848;-1286;-141;-38;-89
491162;1;1;0;489;-476;3867;-1262;-131;-42;-89
491172;1;1;0;489;-491;3854;-1273;-135;-44;-81
491182;1;1;0;489;-515;3869;-1258;-124;-44;-68
491192;1;1;0;489;-508;3879;-1270;-132;-40;-60
491202;1;1;0;489;-493;3872;-1259;-124;-37;-52
491212;1;1;0;489;-476;3859;-1279;-127;-21;-62
491222;1;1;0;489;-465;3854;-1284;-133;-17;-78
491232;1;1;0;489;-481;3845;-1296;-131;-21;-102
491242;1;1;0;489;-472;3842;-1286;-134;-32;-120
491252;1;1;0;489;-499;3859;-1276;-140;-35;-124
491262;1;1;0;489;-490;3854;-1280;-134;-32;-117
491272;1;1;0;489;-495;3853;-1271;-137;-29;-111
491282;1;1;0;489;-471;3862;-1267;-131;-33;-103
491292;1;1;0;489;-486;3861;-1251;-139;-33;-102
491302;1;1;0;489;-494;3860;-1260;-140;-42;-103
491312;1;1;0;489;-494;3860;-1263;-158;-36;-100
491322;1;1;0;489;-500;3862;-1254;-156;-30;-89
491332;1;1;0;489;-490;3852;-1254;-146;-25;-88
491342;1;1;0;489;-487;3860;-1265;-159;-31;-95
491352;1;1;0;489;-502;3864;-1266;-148;-37;-99
491363;1;1;0;490;-496;3870;-1266;-152;-48;-99
491373;1;1;0;490;-485;3868;-1251;-160;-52;-95
491383;1;1;0;490;-486;3886;-1272;-166;-51;-81
491393;1;1;0;490;-477;3873;-1277;-162;-54;-71
491403;1;1;0;490;-466;3857;-1279;-161;-56;-77
491413;1;1;0;490;-483;3850;-1261;-173;-53;-85
491423;1;1;0;490;-494;3857;-1243;-169;-65;-94
491433;1;1;0;490;-490;3858;-1254;-161;-80;-98
491443;1;1;0;490;-494;3873;-1246;-169;-84;-92
491453;1;1;0;490;-490;3859;-1259;-161;-85;-88
491463;1;1;0;490;-486;3869;-1267;-156;-84;-87
491473;1;1;0;490;-490;3862;-1285;-153;-83;-92
491483;1;1;0;490;-496;3859;-1291;-151;-86;-92
491493;1;1;0;490;-492;3865;-1286;-159;-68;-81
491503;1;1;0;490;-504;3862;-1272;-157;-59;-77
491513;1;1;0;490;-489;3861;-1282;-147;-62;-85
491523;1;1;0;490;-497;3859;-1283;-155;-65;-95
491533;1;1;0;490;-503;3858;-1242;-151;-73;-103
491543;1;1;0;490;-504;3853;-1265;-153;-63;-91
491553;1;1;0;490;-502;3867;-1268;-146;-71;-83
491563;1;1;0;490;-494;3872;-1253;-146;-64;-67
491573;1;1;0;490;-484;3864;-1264;-137;-60;-62
491583;1;1;0;490;-479;3867;-1271;-147;-53;-68
491593;1;1;0;490;-470;3844;-1292;-143;-55;-76
491603;1;1;0;490;-462;3854;-1290;-148;-44;-78
491613;1;1;0;490;-478;3850;-1284;-149;-51;-85
491623;1;1;0;490;-484;3865;-1279;-154;-61;-90
491633;1;1;0;490;-481;3865;-1276;-153;-69;-99
491643;1;1;0;490;-486;3878;-1268;-156;-77;-99
491653;1;1;0;490;-485;3865;-1275;-158;-68;-98
491663;1;1;0;490;-477;3865;-1282;-163;-67;-87
491673;1;1;0;490;-477;3858;-1274;-157;-72;-92
491683;1;1;0;490;-476;3874;-1277;-157;-80;-98
491693;1;1;0;490;-479;3848;-1269;-168;-89;-100
491703;1;1;0;490;-478;3844;-1272;-171;-88;-100
491713;1;1;0;490;-492;3841;-1255;-173;-77;-97
491723;1;1;0;490;-493;3855;-1268;-168;-63;-95
491733;1;1;0;490;-489;3851;-1253;-161;-50;-96
491743;1;1;0;490;-504;3859;-1286;-160;-37;-105
491753;1;1;0;490;-492;3854;-1294;-157;-40;-101
491763;1;1;0;490;-498;3877;-1262;-167;-39;-97
491773;1;1;0;490;-506;3875;-1265;-168;-32;-99
491783;1;1;0;490;-499;3875;-1275;-161;-36;-84
491793;1;1;0;490;-500;3891;-1264;-161;-40;-65
491803;1;1;0;490;-501;3883;-1257;-149;-36;-47
491813;1;1;0;490;-486;3874;-1257;-143;-40;-33
491823;1;1;0;490;-469;3852;-1265;-151;-35;-37
491833;1;1;0;490;-477;3835;-1267;-141;-36;-53
491843;1;1;0;490;-460;3831;-1272;-144;-50;-73
491853;1;1;0;490;-488;3842;-1280;-155;-54;-94
491862;1;1;0;491;-500;3863;-1264;-158;-60;-91
491872;1;1;0;491;-497;3872;-1267;-150;-56;-76
491882;1;1;0;491;-486;3874;-1255;-143;-56;-55
491892;1;1;0;491;-500;3875;-1250;-154;-51;-50
491902;1;1;0;491;-488;3875;-1269;-145;-57;-53
491912;1;1;0;491;-493;3872;-1288;-146;-55;-60
491922;1;1;0;491;-492;3855;-1289;-147;-51;-77
491932;1;1;0;491;-488;3866;-1272;-159;-35;-77
491942;1;1;0;491;-487;3863;-1260;-154;-32;-78
491952;1;1;0;491;-479;3861;-1258;-149;-25;-75
491962;1;1;0;491;-486;3839;-1261;-152;-22;-81
491972;1;1;0;491;-486;3841;-1256;-151;-31;-87
491982;1;1;0;491;-481;3863;-1270;-150;-36;-84
491992;1;1;0;491;-489;3882;-1270;-162;-35;-77
492002;1;1;0;491;-480;3869;-1280;-162;-28;-66
492012;1;1;0;491;-493;3864;-1278;-161;-27;-66
492022;1;1;0;491;-491;3871;-1242;-155;-28;-69
492032;1;1;0;491;-501;3873;-1259;-147;-32;-81
492042;1;1;0;491;-499;3856;-1239;-145;-26;-85
492052;1;1;0;491;-503;3857;-1243;-142;-37;-83
492062;1;1;0;491;-507;3865;-1263;-144;-36;-75
492072;1;1;0;491;-491;3857;-1257;-134;-49;-70
492082;1;1;0;491;-479;3862;-1246;-146;-52;-77
492092;1;1;0;491;-486;3862;-1234;-146;-57;-77
492102;1;1;0;491;-491;3862;-1265;-138;-58;-75
492112;1;1;0;491;-472;3864;-1271;-139;-56;-78
492122;1;1;0;491;-481;3873;-1281;-148;-44;-80
492132;1;1;0;491;-500;3854;-1280;-150;-44;-83
492142;1;1;0;491;-487;3844;-1284;-151;-35;-93
492152;1;1;0;491;-488;3843;-1274;-163;-23;-101
492162;1;1;0;491;-497;3855;-1260;-155;-27;-100
492172;1;1;0;491;-491;3857;-1276;-148;-26;-97
492182;1;1;0;491;-484;3882;-1279;-153;-26;-91
492192;1;1;0;491;-488;3871;-1279;-155;-20;-86
492202;1;1;0;491;-485;3880;-1261;-160;-13;-89
492212;1;1;0;491;-484;3869;-1277;-153;-13;-89
492222;1;1;0;491;-486;3854;-1255;-151;-19;-92
492232;1;1;0;491;-497;3858;-1263;-153;-34;-87
492242;1;1;0;491;-504;3854;-1260;-154;-43;-84
492252;1;1;0;491;-501;3854;-1265;-159;-52;-80
492262;1;1;0;491;-492;3869;-1260;-111;-5;-91
492272;1;1;0;491;-501;3871;-1262;-144;-49;-85
492282;1;1;0;491;-494;3872;-1269;-162;-45;-89
492292;1;1;0;491;-492;3874;-1281;-163;-41;-89
492302;1;1;0;491;-468;3858;-1284;-127;-26;-87
492312;1;1;0;491;-494;3870;-1284;-141;-56;-89
492322;1;1;0;491;-493;3860;-1267;-141;-58;-92
492332;1;1;0;491;-496;3857;-1274;-125;-56;-86
492342;1;1;0;491;-474;3867;-1271;-137;-56;-84
492352;1;1;0;491;-476;3856;-1280;-134;-57;-79
492362;1;1;0;492;-487;3854;-1276;-140;-72;-78
492372;1;1;0;492;-486;3852;-1274;-152;-84;-88
492382;1;1;0;492;-496;3850;-1275;-153;-87;-88
492392;1;1;0;492;-485;3863;-1269;-151;-87;-81
492402;1;1;0;492;-495;3871;-1263;-145;-74;-76
492412;1;1;0;492;-487;3861;-1279;-141;-65;-64
492422;1;1;0;492;-487;3864;-1292;-147;-59;-42
492432;1;1;0;492;-483;3865;-1297;-150;-59;-41
492442;1;1;0;492;-475;3858;-1290;-151;-62;-56
492452;1;1;0;492;-489;3853;-1290;-147;-57;-71
492462;1;1;0;492;-495;3862;-1282;-139;-42;-70
492472;1;1;0;492;-492;3868;-1289;-99;14;-79
492482;1;1;0;492;-500;3877;-1284;-140;-12;-68
492492;1;1;0;492;-488;3880;-1276;-133;-25;-65
492502;1;1;0;492;-473;3867;-1282;-135;-40;-64
492512;1;1;0;492;-489;3845;-1267;-149;-40;-67
492522;1;1;0;492;-487;3848;-1281;-152;-38;-66
492532;1;1;0;492;-481;3839;-1293;-150;-38;-79
492542;1;1;0;492;-498;3861;-1297;-151;-30;-85
492552;1;1;0;492;-502;3849;-1266;-157;-23;-81
492562;1;1;0;492;-483;3864;-1270;-146;-25;-72
492572;1;1;0;492;-498;3872;-1245;-150;-26;-59
492582;1;1;0;492;-479;3854;-1244;-145;-38;-62
492592;1;1;0;492;-476;3855;-1274;-134;-56;-66
492602;1;1;0;492;-478;3843;-1285;-146;-67;-74
492612;1;1;0;492;-485;3856;-1276;-147;-70;-89
492622;1;1;0;492;-493;3856;-1272;-153;-73;-92
492632;1;1;0;492;-493;3852;-1264;-147;-65;-76
492642;1;1;0;492;-486;3866;-1284;-121;-21;-72
492652;1;1;0;492;-478;3866;-1281;-153;-43;-67
492662;1;1;0;492;-476;3849;-1271;-148;-61;-77
492672;1;1;0;492;-489;3852;-1268;-160;-64;-86
492682;1;1;0;492;-497;3855;-1267;-154;-67;-89
492692;1;1;0;492;-496;3865;-1272;-154;-63;-83
492702;1;1;0;492;-495;3864;-1300;-157;-61;-70
492712;1;1;0;492;-484;3867;-1283;-156;-60;-70
492722;1;1;0;492;-493;3852;-1263;-148;-61;-71
492732;1;1;0;492;-488;3866;-1259;-137;-74;-82
492742;1;1;0;492;-487;3855;-1255;-138;-92;-79
492752;1;1;0;492;-485;3878;-1282;-147;-98;-70
492762;1;1;0;492;-486;3871;-1291;-156;-105;-58
492772;1;1;0;492;-483;3864;-1280;-150;-106;-50
492782;1;1;0;492;-475;3850;-1274;-158;-93;-50
492792;1;1;0;492;-474;3848;-1268;-156;-83;-68
492802;1;1;0;492;-474;3850;-1288;-154;-89;-84
492812;1;1;0;492;-495;3848;-1307;-153;-99;-91
492822;1;1;0;492;-476;3866;-1301;-170;-94;-91
492832;1;1;0;492;-488;3863;-1279;-166;-94;-77
492842;1;1;0;492;-489;3852;-1276;-153;-101;-78
492852;1;1;0;492;-478;3853;-1267;-148;-86;-74
492862;1;1;0;493;-488;3859;-1251;-136;-88;-83
492872;1;1;0;493;-479;3871;-1268;-115;-81;-92
492882;1;1;0;493;-482;3864;-1291;-141;-90;-85
492892;1;1;0;493;-492;3859;-1281;-151;-83;-75
492902;1;1;0;493;-485;3857;-1296;-149;-83;-76
492912;1;1;0;493;-490;3861;-1277;-149;-85;-80
492922;1;1;0;493;-484;3853;-1276;-144;-78;-81
492932;1;1;0;493;-510;3874;-1294;-149;-95;-86
492942;1;1;0;493;-488;3850;-1274;-151;-83;-57
492952;1;1;0;493;-493;3860;-1268;-151;-74;-54
492962;1;1;0;493;-482;3867;-1273;-150;-88;-59
492972;1;1;0;493;-478;3867;-1255;-149;-94;-62
492982;1;1;0;493;-481;3857;-1264;-148;-89;-60
492992;1;1;0;493;-495;3857;-1289;-147;-99;-51
493002;1;1;0;493;-483;3865;-1280;-153;-117;-39
493012;1;1;0;493;-466;3873;-1268;-158;-125;-37
493022;1;1;0;493;-495;3871;-1279;-148;-133;-30
493032;1;1;0;493;-502;3867;-1287;-149;-146;-27
493042;1;1;0;493;-507;3862;-1287;-153;-152;-28
493052;1;1;0;493;-518;3842;-1288;-146;-146;-16
493062;1;1;0;493;-488;3864;-1292;-149;-137;-2
493072;1;1;0;493;-477;3861;-1303;-146;-134;3
493082;1;1;0;493;-488;3838;-1274;-157;-123;-12
493092;1;1;0;493;-487;3830;-1308;-154;-141;-28
493102;1;1;0;493;-480;3852;-1281;-161;-144;-42
493112;1;1;0;493;-487;3869;-1275;-171;-137;-32
493122;1;1;0;493;-489;3866;-1267;-161;-120;-16
493132;1;1;0;493;-488;3865;-1280;-149;-106;14
493142;1;1;0;493;-465;3871;-1260;-142;-97;21
493152;1;1;0;493;-473;3867;-1262;-136;-109;18
493162;1;1;0;493;-464;3880;-1263;-143;-129;-4
493172;1;1;0;493;-460;3873;-1280;-134;-144;-27
493182;1;1;0;493;-490;3860;-1277;-133;-134;-17
493192;1;1;0;493;-487;3859;-1276;-146;-120;-5
493202;1;1;0;493;-484;3859;-1281;-141;-126;-6
493212;1;1;0;493;-469;3859;-1278;-130;-145;-9
493222;1;1;0;493;-468;3859;-1276;-143;-158;-3
493232;1;1;0;493;-455;3850;-1247;-140;-158;4
493242;1;1;0;493;-456;3868;-1257;-124;-162;0
493252;1;1;0;493;-454;3862;-1277;-122;-153;-5
493262;1;1;0;493;-465;3853;-1314;-138;-139;-10
493272;1;1;0;493;-457;3852;-1295;-139;-132;-16
493282;1;1;0;493;-465;3855;-1305;-139;-118;-23
493292;1;1;0;493;-478;3871;-1282;-144;-114;-29
493302;1;1;0;493;-472;3859;-1279;-141;-108;-27
493312;1;1;0;493;-460;3859;-1265;-136;-109;-37
493322;1;1;0;493;-460;3859;-1259;-137;-106;-49
493332;1;1;0;493;-458;3850;-1288;-138;-103;-69
493342;1;1;0;493;-460;3860;-1270;-137;-101;-73
493352;1;1;0;493;-465;3875;-1282;-135;-94;-62
493362;1;1;0;494;-462;3875;-1279;-139;-78;-44
493372;1;1;0;494;-459;3864;-1279;-150;-78;-40
493382;1;1;0;494;-458;3852;-1271;-154;-80;-48
493392;1;1;0;494;-471;3863;-1272;-151;-82;-61
493402;1;1;0;494;-471;3851;-1280;-151;-83;-62
493412;1;1;0;494;-469;3848;-1265;-148;-86;-62
493422;1;1;0;494;-488;3869;-1265;-150;-91;-72
493432;1;1;0;494;-469;3874;-1239;-160;-97;-70
493442;1;1;0;494;-461;3871;-1264;-160;-117;-66
493452;1;1;0;494;-469;3877;-1264;-146;-141;-57
493462;1;1;0;494;-467;3870;-1253;-134;-148;-54
493472;1;1;0;494;-466;3863;-1245;-133;-150;-47
493482;1;1;0;494;-473;3879;-1275;-138;-160;-47
493492;1;1;0;494;-467;3856;-1280;-133;-171;-44
493502;1;1;0;494;-470;3843;-1270;-129;-160;-48
493512;1;1;0;494;-477;3851;-1270;-141;-171;-56
493522;1;1;0;494;-457;3867;-1286;-155;-178;-59
493532;1;1;0;494;-465;3861;-1275;-150;-178;-55
493542;1;1;0;494;-448;3884;-1281;-161;-156;-38
493552;1;1;0;494;-453;3864;-1303;-160;-141;-32
493562;1;1;0;494;-451;3853;-1288;-150;-129;-40
493572;1;1;0;494;-450;3850;-1301;-152;-126;-57
493582;1;1;0;494;-448;3849;-1289;-144;-115;-71
493592;1;1;0;494;-473;3859;-1249;-132;-102;-83
493602;1;1;0;494;-472;3856;-1263;-132;-106;-90
493612;1;1;0;494;-481;3875;-1267;-138;-111;-88
493622;1;1;0;494;-486;3862;-1247;-145;-111;-79
493632;1;1;0;494;-461;3872;-1252;-140;-110;-72
493642;1;1;0;494;-468;3871;-1255;-129;-120;-78
493652;1;1;0;494;-478;3878;-1273;-140;-129;-85
493662;1;1;0;494;-484;3867;-1287;-144;-134;-75
493672;1;1;0;494;-481;3879;-1271;-139;-127;-54
493682;1;1;0;494;-472;3861;-1262;-128;-116;-29
493692;1;1;0;494;-463;3853;-1269;-130;-97;-30
493702;1;1;0;494;-459;3850;-1275;-135;-102;-53
493712;1;1;0;494;-478;3867;-1263;-146;-111;-70
493722;1;1;0;494;-468;3840;-1267;-157;-116;-65
493732;1;1;0;494;-460;3854;-1272;-172;-118;-62
493742;1;1;0;494;-472;3855;-1277;-183;-130;-70
493752;1;1;0;494;-460;3867;-1282;-178;-144;-94
493762;1;1;0;494;-481;3870;-1272;-175;-157;-86
493772;1;1;0;494;-485;3871;-1263;-168;-145;-78
493782;1;1;0;494;-456;3866;-1266;-159;-130;-68
493792;1;1;0;494;-452;3867;-1271;-150;-120;-77
493802;1;1;0;494;-478;3832;-1274;-137;-112;-82
493812;1;1;0;494;-478;3841;-1274;-155;-115;-92
493822;1;1;0;494;-476;3847;-1280;-164;-124;-91
493832;1;1;0;494;-468;3851;-1283;-164;-122;-89
493842;1;1;0;494;-463;3872;-1270;-166;-101;-81
493852;1;1;0;494;-470;3865;-1302;-154;-86;-70
493862;1;1;0;495;-474;3867;-1293;-164;-73;-64
493872;1;1;0;495;-456;3864;-1280;-164;-91;-73
493882;1;1;0;495;-462;3870;-1266;-146;-104;-89
493892;1;1;0;495;-463;3857;-1259;-145;-106;-99
493902;1;1;0;495;-461;3857;-1271;-155;-86;-100
493912;1;1;0;495;-464;3864;-1281;-149;-82;-98
493922;1;1;0;495;-472;3869;-1265;-144;-84;-100
493932;1;1;0;495;-467;3861;-1283;-146;-82;-101
493942;1;1;0;495;-464;3843;-1269;-151;-71;-97
493952;1;1;0;495;-468;3841;-1279;-158;-65;-99
493962;1;1;0;495;-464;3851;-1275;-166;-80;-108
493972;1;1;0;495;-476;3866;-1263;-155;-98;-117
493982;1;1;0;495;-490;3869;-1256;-146;-105;-110
493992;1;1;0;495;-494;3859;-1255;-158;-99;-95
494002;1;1;0;495;-465;3884;-1250;-148;-107;-79
494012;1;1;0;495;-479;3875;-1268;-139;-113;-82
494022;1;1;0;495;-489;3870;-1266;-149;-108;-80
494032;1;1;0;495;-482;3855;-1274;-142;-103;-76
494042;1;1;0;495;-483;3866;-1295;-151;-105;-81
494052;1;1;0;495;-456;3846;-1280;-160;-112;-89
494062;1;1;0;495;-459;3847;-1279;-153;-102;-96
494072;1;1;0;495;-476;3858;-1287;-157;-92;-98
494082;1;1;0;495;-481;3841;-1282;-163;-88;-99
494092;1;1;0;495;-479;3850;-1278;-162;-94;-96
494102;1;1;0;495;-502;3861;-1264;-181;-95;-82
494112;1;1;0;495;-459;3879;-1243;-166;-106;-81
494122;1;1;0;495;-464;3873;-1279;-144;-117;-87
494132;1;1;0;495;-486;3860;-1273;-156;-112;-84
494142;1;1;0;495;-481;3868;-1276;-155;-126;-86
494152;1;1;0;495;-497;3856;-1271;-153;-138;-98
494162;1;1;0;495;-492;3856;-1269;-155;-130;-101
494172;1;1;0;495;-479;3864;-1270;-157;-128;-98
494182;1;1;0;495;-479;3860;-1248;-142;-128;-87
494192;1;1;0;495;-486;3863;-1280;-146;-131;-74
494202;1;1;0;495;-467;3847;-1266;-148;-142;-66
494212;1;1;0;495;-479;3862;-1281;-160;-145;-75
494222;1;1;0;495;-482;3864;-1276;-163;-148;-70
494232;1;1;0;495;-455;3841;-1255;-155;-137;-76
494242;1;1;0;495;-479;3846;-1287;-152;-124;-95
494252;1;1;0;495;-488;3838;-1283;-156;-122;-119
494262;1;1;0;495;-478;3851;-1283;-159;-112;-121
494272;1;1;0;495;-491;3868;-1284;-161;-90;-123
494282;1;1;0;495;-505;3876;-1300;-154;-81;-114
494292;1;1;0;495;-494;3882;-1292;-160;-75;-104
494302;1;1;0;495;-502;3870;-1281;-158;-70;-92
494312;1;1;0;495;-498;3887;-1248;-149;-76;-91
494322;1;1;0;495;-477;3854;-1252;-147;-81;-91
494332;1;1;0;495;-488;3861;-1253;-153;-80;-103
494342;1;1;0;495;-497;3852;-1246;-150;-92;-107
494352;1;1;0;495;-496;3856;-1260;-150;-97;-104
494362;1;1;0;496;-498;3864;-1259;-150;-91;-96
494372;1;1;0;496;-493;3863;-1262;-150;-92;-99
494382;1;1;0;496;-498;3864;-1270;-149;-102;-93
494392;1;1;0;496;-498;3866;-1268;-151;-103;-92
494402;1;1;0;496;-486;3849;-1271;-152;-102;-80
494412;1;1;0;496;-480;3861;-1294;-151;-116;-90
494422;1;1;0;496;-490;3866;-1281;-151;-122;-112
494432;1;1;0;496;-510;3852;-1281;-148;-125;-124
494442;1;1;0;496;-502;3856;-1278;-163;-117;-130
494452;1;1;0;496;-498;3866;-1278;-173;-111;-121
494462;1;1;0;496;-487;3846;-1236;-156;-90;-113
494472;1;1;0;496;-485;3875;-1281;-162;-90;-131
494482;1;1;0;496;-486;3864;-1267;-158;-116;-132
494492;1;1;0;496;-502;3861;-1268;-174;-114;-123
494502;1;1;0;496;-483;3862;-1259;-173;-110;-112
494512;1;1;0;496;-480;3880;-1268;-164;-92;-99
494522;1;1;0;496;-505;3862;-1263;-164;-75;-93
494532;1;1;0;496;-497;3862;-1243;-160;-61;-88
494542;1;1;0;496;-488;3865;-1234;-158;-69;-91
494552;1;1;0;496;-494;3863;-1261;-156;-88;-97
494562;1;1;0;496;-506;3873;-1256;-160;-89;-101
494572;1;1;0;496;-514;3881;-1268;-160;-87;-100
494582;1;1;0;496;-505;3880;-1273;-149;-71;-94
494592;1;1;0;496;-488;3868;-1274;-155;-41;-93
494602;1;1;0;496;-487;3859;-1270;-153;-31;-99
494612;1;1;0;496;-506;3850;-1255;-155;-31;-105
494622;1;1;0;496;-516;3835;-1266;-169;-14;-104
494632;1;1;0;496;-494;3859;-1248;-171;-21;-113
494642;1;1;0;496;-509;3871;-1221;-154;-47;-128
494652;1;1;0;496;-527;3882;-1237;-141;-67;-127
494662;1;1;0;496;-509;3872;-1237;-145;-70;-85
494672;1;1;0;496;-502;3876;-1227;-155;-63;-57
494682;1;1;0;496;-485;3873;-1236;-141;-76;-59
494692;1;1;0;496;-488;3870;-1256;-134;-86;-74
494702;1;1;0;496;-502;3850;-1259;-147;-84;-94
494712;1;1;0;496;-485;3853;-1282;-155;-86;-107
494722;1;1;0;496;-502;3852;-1269;-162;-88;-116
494732;1;1;0;496;-522;3857;-1282;-165;-79;-104
494742;1;1;0;496;-519;3856;-1270;-166;-70;-93
494752;1;1;0;496;-519;3851;-1260;-162;-63;-78
494762;1;1;0;496;-501;3867;-1251;-154;-70;-77
494772;1;1;0;496;-482;3870;-1263;-165;-75;-77
494782;1;1;0;496;-500;3862;-1276;-157;-69;-73
494792;1;1;0;496;-501;3864;-1276;-162;-67;-79
494802;1;1;0;496;-497;3852;-1273;-169;-70;-89
494812;1;1;0;496;-519;3864;-1278;-175;-75;-91
494822;1;1;0;496;-516;3884;-1253;-175;-77;-86
494832;1;1;0;496;-498;3866;-1244;-175;-77;-76
494842;1;1;0;496;-512;3866;-1277;-181;-83;-70
494852;1;1;0;496;-518;3867;-1239;-169;-89;-70
494862;1;1;0;497;-479;3889;-1223;-141;-104;-87
494872;1;1;0;497;-536;3853;-1272;-130;-107;-77
494882;1;1;0;497;-535;3842;-1272;-176;-77;-39
494892;1;1;0;497;-482;3856;-1238;-178;-91;-44
494902;1;1;0;497;-513;3854;-1248;-148;-104;-73
494912;1;1;0;497;-501;3856;-1266;-136;-103;-85
494922;1;1;0;497;-494;3870;-1267;-130;-92;-83
494932;1;1;0;497;-500;3884;-1272;-135;-94;-75
494942;1;1;0;497;-496;3876;-1282;-119;-106;-80
494952;1;1;0;497;-494;3878;-1288;-105;-94;-69
494962;1;1;0;497;-495;3871;-1263;-121;-89;-59
494972;1;1;0;497;-505;3857;-1259;-134;-85;-51
494982;1;1;0;497;-496;3825;-1267;-144;-93;-52
494992;1;1;0;497;-496;3850;-1239;-151;-98;-69
495002;1;1;0;497;-491;3867;-1266;-152;-117;-86
495012;1;1;0;497;-505;3862;-1265;-153;-125;-87
495022;1;1;0;497;-518;3868;-1264;-130;-113;-72
495032;1;1;0;497;-511;3860;-1280;-123;-97;-66
495042;1;1;0;497;-514;3858;-1267;-120;-104;-73
495052;1;1;0;497;-505;3852;-1269;-123;-106;-79
495062;1;1;0;497;-493;3851;-1248;-132;-92;-78
495072;1;1;0;497;-481;3855;-1275;-134;-83;-83
495082;1;1;0;497;-503;3856;-1276;-130;-93;-93
495092;1;1;0;497;-511;3860;-1287;-131;-88;-93
495102;1;1;0;497;-508;3873;-1275;-131;-100;-96
495112;1;1;0;497;-516;3883;-1267;-154;-111;-82
495122;1;1;0;497;-488;3866;-1264;-150;-110;-68
495132;1;1;0;497;-482;3864;-1272;-134;-108;-66
495142;1;1;0;497;-500;3860;-1280;-140;-127;-74
495152;1;1;0;497;-490;3851;-1281;-137;-132;-86
495162;1;1;0;497;-484;3854;-1272;-141;-135;-83
495172;1;1;0;497;-498;3871;-1259;-146;-121;-64
495182;1;1;0;497;-496;3866;-1254;-137;-102;-55
495192;1;1;0;497;-487;3848;-1269;-139;-89;-46
495202;1;1;0;497;-483;3843;-1259;-141;-88;-52
495212;1;1;0;497;-479;3862;-1284;-154;-102;-66
495222;1;1;0;497;-494;3860;-1294;-166;-97;-86
495232;1;1;0;497;-499;3858;-1292;-172;-68;-90
495242;1;1;0;497;-520;3873;-1271;-160;-47;-91
495252;1;1;0;497;-505;3858;-1266;-151;-24;-87
495262;1;1;0;497;-514;3863;-1257;-148;-15;-91
495272;1;1;0;497;-520;3852;-1246;-140;-15;-95
495282;1;1;0;497;-505;3843;-1261;-139;-5;-104
495292;1;1;0;497;-496;3850;-1237;-136;-8;-114
495302;1;1;0;497;-492;3860;-1267;-140;-12;-118
495312;1;1;0;497;-501;3874;-1264;-142;-16;-125
495322;1;1;0;497;-487;3852;-1274;-134;-2;-105
495332;1;1;0;497;-514;3880;-1266;-135;-8;-93
495342;1;1;0;497;-516;3885;-1271;-136;-18;-64
495352;1;1;0;497;-491;3869;-1250;-130;-18;-54
495363;1;1;0;498;-497;3847;-1256;-119;-30;-60
495373;1;1;0;498;-486;3862;-1264;-123;-56;-72
495383;1;1;0;498;-497;3849;-1269;-133;-78;-76
495393;1;1;0;498;-495;3845;-1258;-142;-72;-76
495403;1;1;0;498;-496;3844;-1255;-132;-61;-72
495413;1;1;0;498;-486;3848;-1267;-124;-55;-62
495423;1;1;0;498;-497;3862;-1277;-125;-62;-68
495433;1;1;0;498;-500;3872;-1290;-136;-59;-73
495443;1;1;0;498;-527;3840;-1293;-151;-36;-68
495453;1;1;0;498;-495;3872;-1279;-133;-29;-80
495463;1;1;0;498;-512;3854;-1269;-126;-36;-102
495473;1;1;0;498;-525;3851;-1277;-141;-36;-88
495483;1;1;0;498;-495;3880;-1276;-158;-28;-63
495493;1;1;0;498;-500;3869;-1254;-157;-44;-58
495503;1;1;0;498;-496;3862;-1264;-146;-63;-66
495513;1;1;0;498;-495;3862;-1249;-149;-66;-69
495523;1;1;0;498;-493;3872;-1270;-147;-75;-74
495533;1;1;0;498;-514;3857;-1287;-139;-71;-76
495543;1;1;0;498;-509;3856;-1282;-141;-60;-70
495553;1;1;0;498;-501;3844;-1287;-146;-54;-74
495563;1;1;0;498;-503;3839;-1263;-150;-62;-81
495573;1;1;0;498;-505;3850;-1254;-153;-82;-92
495583;1;1;0;498;-515;3864;-1263;-150;-95;-94
495593;1;1;0;498;-512;3862;-1258;-155;-98;-76
495603;1;1;0;498;-503;3885;-1272;-146;-105;-64
495613;1;1;0;498;-495;3867;-1260;-141;-106;-59
495623;1;1;0;498;-496;3854;-1270;-139;-114;-57
495633;1;1;0;498;-498;3845;-1265;-137;-115;-58
495643;1;1;0;498;-490;3849;-1279;-146;-115;-66
495653;1;1;0;498;-502;3842;-1288;-151;-120;-83
495663;1;1;0;498;-509;3845;-1304;-153;-113;-88
495673;1;1;0;498;-510;3862;-1302;-160;-101;-80
495683;1;1;0;498;-514;3861;-1290;-156;-89;-65
495693;1;1;0;498;-520;3860;-1269;-153;-67;-52
495703;1;1;0;498;-505;3861;-1266;-141;-59;-49
495713;1;1;0;498;-504;3854;-1274;-150;-55;-54
495723;1;1;0;498;-491;3848;-1264;-139;-66;-53
495733;1;1;0;498;-482;3854;-1268;-138;-73;-65
495743;1;1;0;498;-504;3840;-1297;-142;-82;-68
495753;1;1;0;498;-509;3860;-1290;-147;-92;-76
495763;1;1;0;498;-513;3846;-1277;-151;-95;-66
495773;1;1;0;498;-509;3856;-1281;-153;-87;-50
495783;1;1;0;498;-513;3867;-1284;-148;-80;-36
495793;1;1;0;498;-491;3865;-1282;-141;-88;-31
495803;1;1;0;498;-486;3849;-1266;-130;-97;-36
495813;1;1;0;498;-487;3845;-1266;-139;-114;-50
495823;1;1;0;498;-478;3862;-1270;-144;-127;-63
495833;1;1;0;498;-492;3841;-1280;-146;-126;-66
495843;1;1;0;498;-481;3851;-1271;-148;-106;-58
495853;1;1;0;498;-483;3853;-1276;-153;-90;-51
495862;1;1;0;499;-492;3857;-1278;-144;-85;-43
495872;1;1;0;499;-489;3863;-1272;-140;-89;-47
495882;1;1;0;499;-492;3861;-1283;-142;-88;-60
495892;1;1;0;499;-515;3863;-1272;-136;-85;-64
495902;1;1;0;499;-498;3874;-1283;-133;-78;-64
495912;1;1;0;499;-495;3853;-1286;-145;-59;-60
495922;1;1;0;499;-498;3854;-1273;-141;-56;-61
495932;1;1;0;499;-492;3843;-1308;-154;-50;-67
495942;1;1;0;499;-505;3846;-1314;-170;-37;-67
495952;1;1;0;499;-496;3858;-1275;-161;-38;-70
495962;1;1;0;499;-490;3857;-1281;-162;-34;-70
495972;1;1;0;499;-494;3877;-1289;-161;-38;-65
495982;1;1;0;499;-504;3866;-1262;-150;-39;-56
495992;1;1;0;499;-483;3866;-1247;-147;-43;-49
496002;1;1;0;499;-491;3868;-1238;-140;-46;-52
496012;1;1;0;499;-485;3860;-1244;-127;-54;-63
496022;1;1;0;499;-483;3850;-1273;-139;-66;-78
496032;1;1;0;499;-493;3863;-1288;-151;-69;-91
496042;1;1;0;499;-519;3856;-1262;-155;-74;-82
496052;1;1;0;499;-514;3863;-1263;-159;-73;-76
496062;1;1;0;499;-497;3851;-1265;-162;-69;-70
496072;1;1;0;499;-501;3867;-1286;-149;-69;-64
496082;1;1;0;499;-501;3868;-1279;-153;-83;-61
496092;1;1;0;499;-490;3860;-1278;-149;-93;-53
496102;1;1;0;499;-504;3863;-1264;-152;-94;-51
496112;1;1;0;499;-491;3865;-1260;-145;-98;-45
496122;1;1;0;499;-487;3863;-1274;-145;-100;-43
496132;1;1;0;499;-504;3860;-1246;-155;-102;-40
496142;1;1;0;499;-492;3860;-1263;-159;-112;-40
496152;1;1;0;499;-496;3872;-1285;-161;-133;-40
496162;1;1;0;499;-505;3867;-1283;-156;-143;-38
496172;1;1;0;499;-478;3868;-1276;-157;-137;-33
496182;1;1;0;499;-477;3844;-1267;-151;-129;-33
496192;1;1;0;499;-480;3859;-1278;-145;-134;-37
496202;1;1;0;499;-492;3844;-1273;-142;-147;-41
496212;1;1;0;499;-482;3869;-1263;-154;-148;-44
496222;1;1;0;499;-488;3865;-1266;-149;-137;-37
496232;1;1;0;499;-486;3850;-1270;-137;-133;-42
496242;1;1;0;499;-492;3852;-1270;-133;-132;-61
496252;1;1;0;499;-484;3846;-1280;-143;-124;-72
496262;1;1;0;499;-478;3873;-1281;-139;-118;-69
496272;1;1;0;499;-483;3874;-1289;-141;-95;-56
496282;1;1;0;499;-503;3872;-1284;-136;-85;-50
496292;1;1;0;499;-490;3869;-1291;-129;-92;-47
496302;1;1;0;499;-481;3868;-1272;-143;-108;-52
496312;1;1;0;499;-494;3868;-1273;-151;-120;-46
496322;1;1;0;499;-492;3869;-1251;-155;-128;-40
496332;1;1;0;499;-505;3849;-1257;-153;-134;-35
496342;1;1;0;499;-511;3856;-1242;-158;-135;-23
496352;1;1;0;499;-490;3868;-1248;-146;-147;-19
496362;1;1;0;500;-491;3850;-1257;-139;-154;-21
496372;1;1;0;500;-479;3854;-1272;-139;-159;-34
496382;1;1;0;500;-475;3852;-1286;-147;-159;-44
496392;1;1;0;500;-477;3853;-1294;-143;-163;-54
496402;1;1;0;500;-482;3855;-1296;-140;-149;-59
496412;1;1;0;500;-487;3864;-1306;-155;-146;-59
496422;1;1;0;500;-507;3857;-1298;-147;-142;-62
496432;1;1;0;500;-515;3846;-1300;-155;-134;-59
496442;1;1;0;500;-504;3855;-1283;-160;-128;-58
496452;1;1;0;500;-491;3851;-1247;-137;-130;-49
496462;1;1;0;500;-487;3871;-1269;-147;-128;-48
496472;1;1;0;500;-479;3866;-1269;-147;-144;-45
496482;1;1;0;500;-460;3879;-1282;-153;-140;-35
496492;1;1;0;500;-466;3849;-1287;-166;-117;-27
496502;1;1;0;500;-469;3850;-1306;-159;-94;-21
496512;1;1;0;500;-478;3837;-1303;-164;-74;-40
496522;1;1;0;500;-480;3828;-1281;-153;-68;-53
496532;1;1;0;500;-466;3853;-1281;-157;-67;-57
496542;1;1;0;500;-486;3856;-1288;-142;-82;-58
496552;1;1;0;500;-495;3866;-1264;-139;-82;-69
496562;1;1;0;500;-488;3879;-1273;-151;-86;-65
496572;1;1;0;500;-479;3881;-1272;-137;-79;-61
496582;1;1;0;500;-491;3885;-1274;-139;-67;-57
496592;1;1;0;500;-484;3879;-1271;-134;-74;-50
496602;1;1;0;500;-494;3861;-1264;-135;-62;-43
496612;1;1;0;500;-484;3844;-1262;-146;-59;-38
496622;1;1;0;500;-466;3844;-1255;-153;-65;-44
496632;1;1;0;500;-464;3860;-1275;-136;-84;-54
496642;1;1;0;500;-488;3858;-1249;-136;-90;-57
496652;1;1;0;500;-484;3869;-1262;-137;-96;-51
496662;1;1;0;500;-483;3853;-1265;-130;-94;-38
496672;1;1;0;500;-467;3862;-1249;-124;-92;-26
496682;1;1;0;500;-468;3881;-1283;-127;-91;-43
496692;1;1;0;500;-473;3864;-1274;-131;-102;-55
496702;1;1;0;500;-491;3849;-1274;-131;-93;-65
496712;1;1;0;500;-478;3854;-1251;-136;-83;-73
496722;1;1;0;500;-476;3854;-1302;-149;-78;-86
496732;1;1;0;500;-496;3864;-1276;-145;-76;-84
496742;1;1;0;500;-481;3874;-1248;-152;-65;-77
496752;1;1;0;500;-476;3879;-1258;-143;-70;-62
496762;1;1;0;500;-477;3869;-1265;-133;-79;-65
496772;1;1;0;500;-464;3870;-1261;-123;-90;-63
496782;1;1;0;500;-478;3857;-1255;-124;-101;-67
496792;1;1;0;500;-486;3868;-1253;-136;-105;-70
496802;1;1;0;500;-480;3866;-1261;-144;-108;-67
496812;1;1;0;500;-484;3847;-1268;-135;-108;-74
496822;1;1;0;500;-488;3860;-1270;-144;-110;-79
496832;1;1;0;500;-496;3858;-1284;-140;-119;-72
496842;1;1;0;500;-497;3857;-1287;-147;-106;-50
496852;1;1;0;500;-482;3865;-1287;-151;-114;-51
496862;1;1;0;501;-479;3868;-1260;-141;-121;-56
496872;1;1;0;501;-486;3864;-1269;-141;-131;-53
496882;1;1;0;501;-482;3850;-1265;-134;-146;-57
496892;1;1;0;501;-477;3857;-1245;-130;-146;-56
496902;1;1;0;501;-480;3852;-1272;-131;-147;-66
496912;1;1;0;501;-479;3860;-1277;-133;-157;-74
496922;1;1;0;501;-474;3861;-1257;-129;-156;-71
496932;1;1;0;501;-482;3874;-1266;-119;-148;-60
496942;1;1;0;501;-492;3862;-1278;-131;-138;-47
496952;1;1;0;501;-471;3856;-1290;-131;-135;-47
496962;1;1;0;501;-485;3855;-1273;-134;-139;-48
496972;1;1;0;501;-478;3855;-1284;-145;-135;-66
496982;1;1;0;501;-484;3855;-1282;-148;-136;-74
496992;1;1;0;501;-496;3857;-1289;-140;-133;-72
497002;1;1;0;501;-494;3848;-1288;-156;-124;-71
497012;1;1;0;501;-482;3848;-1271;-145;-113;-69
497022;1;1;0;501;-471;3856;-1271;-153;-103;-76
497032;1;1;0;501;-475;3857;-1283;-162;-98;-93
497042;1;1;0;501;-480;3854;-1284;-147;-103;-99
497052;1;1;0;501;-479;3857;-1288;-154;-97;-101
497062;1;1;0;501;-486;3851;-1296;-156;-92;-111
497072;1;1;0;501;-472;3857;-1312;-172;-82;-121
497082;1;1;0;501;-497;3862;-1294;-167;-81;-126
497092;1;1;0;501;-514;3864;-1284;-172;-69;-119
497102;1;1;0;501;-507;3890;-1260;-170;-76;-107
497112;1;1;0;501;-511;3877;-1261;-165;-79;-101
497122;1;1;0;501;-508;3860;-1254;-166;-88;-89
497132;1;1;0;501;-485;3867;-1252;-150;-109;-90
497142;1;1;0;501;-489;3851;-1264;-157;-123;-92
497152;1;1;0;501;-482;3849;-1278;-149;-127;-90
497162;1;1;0;501;-480;3868;-1241;-147;-121;-92
497172;1;1;0;501;-504;3857;-1271;-134;-105;-100
497182;1;1;0;501;-498;3849;-1283;-141;-87;-99
497192;1;1;0;501;-496;3854;-1299;-136;-83;-102
497202;1;1;0;501;-502;3858;-1293;-139;-99;-106
497212;1;1;0;501;-506;3870;-1279;-148;-96;-106
497222;1;1;0;501;-499;3868;-1275;-144;-87;-99
497232;1;1;0;501;-502;3874;-1266;-140;-82;-102
497242;1;1;0;501;-510;3859;-1301;-135;-80;-114
497252;1;1;0;501;-498;3857;-1292;-151;-67;-104
497262;1;1;0;501;-485;3864;-1269;-152;-54;-84
497272;1;1;0;501;-475;3855;-1258;-141;-57;-86
497282;1;1;0;501;-483;3865;-1256;-144;-62;-97
497292;1;1;0;501;-490;3857;-1285;-143;-72;-103
497302;1;1;0;501;-495;3856;-1258;-148;-79;-102
497312;1;1;0;501;-487;3869;-1255;-152;-72;-90
497322;1;1;0;501;-487;3876;-1254;-150;-79;-82
497332;1;1;0;501;-493;3869;-1254;-146;-77;-79
497342;1;1;0;501;-486;3861;-1275;-141;-84;-82
497352;1;1;0;501;-499;3845;-1267;-150;-94;-88
497362;1;1;0;502;-491;3855;-1277;-152;-108;-101
497372;1;1;0;502;-496;3863;-1285;-152;-107;-95
497382;1;1;0;502;-504;3863;-1285;-158;-92;-76
497392;1;1;0;502;-472;3878;-1277;-161;-78;-62
497402;1;1;0;502;-478;3847;-1280;-163;-74;-66
497412;1;1;0;502;-479;3845;-1280;-159;-83;-74
497422;1;1;0;502;-496;3848;-1286;-153;-106;-83
497432;1;1;0;502;-490;3863;-1264;-149;-118;-91
497442;1;1;0;502;-513;3866;-1260;-152;-122;-80
497452;1;1;0;502;-502;3870;-1237;-138;-129;-76
497462;1;1;0;502;-507;3853;-1293;-131;-128;-78
497472;1;1;0;502;-518;3870;-1271;-152;-120;-65
497482;1;1;0;502;-489;3863;-1290;-152;-108;-60
497492;1;1;0;502;-481;3863;-1291;-143;-104;-63
497502;1;1;0;502;-500;3862;-1291;-149;-90;-71
497512;1;1;0;502;-501;3853;-1287;-148;-85;-68
497522;1;1;0;502;-493;3866;-1268;-159;-77;-70
497532;1;1;0;502;-499;3861;-1266;-147;-86;-70
497542;1;1;0;502;-493;3858;-1254;-141;-90;-67
497552;1;1;0;502;-483;3867;-1256;-137;-92;-69
497562;1;1;0;502;-495;3860;-1255;-143;-89;-69
497572;1;1;0;502;-487;3864;-1257;-137;-106;-75
497582;1;1;0;502;-493;3866;-1283;-141;-102;-74
497592;1;1;0;502;-506;3858;-1302;-154;-90;-70
497602;1;1;0;502;-503;3849;-1296;-152;-90;-73
497612;1;1;0;502;-502;3850;-1289;-153;-91;-84
497622;1;1;0;502;-513;3850;-1281;-161;-95;-95
497632;1;1;0;502;-523;3846;-1255;-165;-99;-100
497642;1;1;0;502;-505;3870;-1249;-157;-106;-91
497652;1;1;0;502;-505;3878;-1265;-144;-109;-79
497662;1;1;0;502;-510;3860;-1274;-142;-101;-72
497672;1;1;0;502;-498;3852;-1254;-146;-94;-64
497682;1;1;0;502;-517;3855;-1256;-139;-96;-69
497692;1;1;0;502;-497;3882;-1275;-145;-106;-67
497702;1;1;0;502;-494;3877;-1278;-148;-111;-63
497712;1;1;0;502;-502;3859;-1275;-154;-109;-50
497722;1;1;0;502;-495;3854;-1276;-148;-107;-54
497732;1;1;0;502;-501;3848;-1254;-148;-112;-65
497742;1;1;0;502;-518;3857;-1277;-144;-118;-71
497752;1;1;0;502;-495;3861;-1272;-146;-114;-68
497762;1;1;0;502;-490;3857;-1284;-158;-112;-64
497772;1;1;0;502;-482;3871;-1281;-160;-114;-66
497782;1;1;0;502;-504;3834;-1293;-172;-110;-79
497792;1;1;0;502;-482;3837;-1273;-164;-110;-92
497802;1;1;0;502;-493;3847;-1289;-163;-99;-95
497812;1;1;0;502;-488;3841;-1281;-164;-82;-95
497822;1;1;0;502;-509;3850;-1273;-161;-68;-93
497832;1;1;0;502;-507;3866;-1279;-156;-52;-95
497842;1;1;0;502;-502;3871;-1259;-148;-66;-87
497852;1;1;0;502;-500;3866;-1251;-148;-75;-89
497862;1;1;0;503;-510;3872;-1276;-150;-84;-89
497872;1;1;0;503;-515;3868;-1277;-157;-76;-76
497882;1;1;0;503;-499;3855;-1283;-158;-68;-74
497892;1;1;0;503;-506;3840;-1280;-149;-68;-66
497902;1;1;0;503;-503;3856;-1273;-155;-62;-74
497912;1;1;0;503;-492;3849;-1261;-153;-64;-68
497922;1;1;0;503;-487;3851;-1270;-155;-63;-69
497932;1;1;0;503;-483;3859;-1279;-155;-68;-69
497942;1;1;0;503;-485;3864;-1279;-152;-69;-74
497952;1;1;0;503;-503;3863;-1260;-146;-80;-78
497962;1;1;0;503;-500;3860;-1273;-144;-69;-69
497972;1;1;0;503;-502;3858;-1281;-140;-56;-60
497982;1;1;0;503;-499;3874;-1273;-151;-55;-60
497992;1;1;0;503;-489;3845;-1285;-149;-63;-74
498002;1;1;0;503;-491;3829;-1273;-159;-70;-96
498012;1;1;0;503;-498;3832;-1270;-155;-82;-107
498022;1;1;0;503;-499;3862;-1280;-156;-85;-109
498032;1;1;0;503;-497;3873;-1288;-164;-71;-92
498042;1;1;0;503;-497;3870;-1263;-151;-61;-83
498052;1;1;0;503;-492;3863;-1255;-147;-55;-83
498062;1;1;0;503;-496;3870;-1280;-147;-56;-83
498072;1;1;0;503;-492;3860;-1255;-144;-65;-83
498082;1;1;0;503;-497;3857;-1260;-138;-66;-89
498092;1;1;0;503;-508;3860;-1254;-137;-73;-86
498102;1;1;0;503;-510;3861;-1265;-135;-72;-86
498112;1;1;0;503;-485;3865;-1275;-144;-72;-84
498122;1;1;0;503;-482;3855;-1279;-136;-84;-79
498132;1;1;0;503;-492;3870;-1279;-145;-80;-67
498142;1;1;0;503;-493;3856;-1276;-138;-77;-59
498152;1;1;0;503;-497;3849;-1272;-141;-78;-66
498162;1;1;0;503;-490;3841;-1271;-146;-82;-82
498172;1;1;0;503;-492;3852;-1279;-148;-78;-94
498182;1;1;0;503;-505;3858;-1261;-145;-86;-108
498192;1;1;0;503;-505;3866;-1265;-148;-88;-109
498202;1;1;0;503;-510;3861;-1258;-159;-93;-102
498212;1;1;0;503;-509;3870;-1257;-158;-93;-85
498222;1;1;0;503;-504;3883;-1263;-152;-96;-70
498232;1;1;0;503;-492;3866;-1263;-144;-99;-61
498242;1;1;0;503;-506;3861;-1251;-146;-97;-57
498252;1;1;0;503;-511;3846;-1266;-152;-102;-68
498262;1;1;0;503;-508;3849;-1271;-139;-105;-74
498272;1;1;0;503;-501;3845;-1273;-149;-105;-82
498282;1;1;0;503;-508;3850;-1259;-149;-108;-79
498292;1;1;0;503;-500;3857;-1250;-150;-111;-85
498302;1;1;0;503;-500;3868;-1274;-146;-115;-76
498312;1;1;0;503;-511;3869;-1269;-149;-109;-70
498322;1;1;0;503;-495;3864;-1286;-141;-95;-62
498332;1;1;0;503;-497;3852;-1287;-142;-85;-62
498342;1;1;0;503;-497;3847;-1262;-140;-90;-80
498352;1;1;0;503;-493;3832;-1293;-159;-93;-92
498362;1;1;0;504;-491;3841;-1275;-169;-91;-101
498372;1;1;0;504;-516;3847;-1294;-175;-107;-104
498382;1;1;0;504;-511;3862;-1260;-174;-108;-104
498392;1;1;0;504;-506;3869;-1266;-178;-106;-105
498402;1;1;0;504;-519;3879;-1281;-168;-114;-94
498412;1;1;0;504;-517;3870;-1276;-153;-108;-83
498422;1;1;0;504;-509;3865;-1256;-160;-104;-69
498432;1;1;0;504;-511;3855;-1264;-150;-97;-74
498442;1;1;0;504;-505;3836;-1272;-157;-109;-90
498452;1;1;0;504;-507;3858;-1272;-151;-113;-98
498462;1;1;0;504;-518;3859;-1260;-154;-110;-89
498472;1;1;0;504;-520;3869;-1263;-146;-93;-57
498482;1;1;0;504;-498;3868;-1276;-140;-80;-39
498492;1;1;0;504;-502;3867;-1290;-140;-86;-35
498502;1;1;0;504;-497;3861;-1296;-149;-104;-25
498512;1;1;0;504;-503;3858;-1291;-153;-105;-30
498522;1;1;0;504;-493;3840;-1260;-153;-91;-43
498532;1;1;0;504;-493;3847;-1268;-158;-76;-70
498542;1;1;0;504;-492;3836;-1255;-151;-78;-87
498552;1;1;0;504;-498;3844;-1273;-142;-92;-102
498562;1;1;0;504;-507;3865;-1267;-137;-98;-92
498572;1;1;0;504;-497;3864;-1276;-150;-88;-80
498582;1;1;0;504;-488;3862;-1268;-147;-86;-61
498592;1;1;0;504;-486;3849;-1272;-150;-82;-62
498602;1;1;0;504;-485;3844;-1288;-144;-73;-74
498612;1;1;0;504;-506;3840;-1281;-154;-62;-81
498622;1;1;0;504;-515;3860;-1285;-156;-42;-91
498632;1;1;0;504;-506;3855;-1286;-159;-50;-93
498642;1;1;0;504;-501;3861;-1272;-153;-45;-91
498652;1;1;0;504;-502;3855;-1285;-160;-49;-94
498662;1;1;0;504;-493;3844;-1267;-160;-55;-104
498672;1;1;0;504;-509;3855;-1270;-149;-73;-107
498682;1;1;0;504;-503;3877;-1277;-158;-71;-104
498692;1;1;0;504;-500;3866;-1280;-150;-64;-88
498702;1;1;0;504;-497;3857;-1268;-151;-54;-70
498712;1;1;0;504;-492;3850;-1260;-142;-65;-64
498722;1;1;0;504;-492;3846;-1274;-146;-85;-72
498732;1;1;0;504;-503;3841;-1284;-143;-89;-80
498742;1;1;0;504;-499;3860;-1269;-145;-102;-81
498752;1;1;0;504;-501;3850;-1268;-147;-91;-75
498762;1;1;0;504;-516;3864;-1282;-131;-98;-70
498772;1;1;0;504;-499;3868;-1287;-133;-95;-58
498782;1;1;0;504;-499;3872;-1286;-123;-94;-47
498792;1;1;0;504;-497;3864;-1286;-135;-88;-34
498802;1;1;0;504;-495;3858;-1278;-131;-93;-41
498812;1;1;0;504;-490;3856;-1286;-137;-84;-45
498822;1;1;0;504;-512;3856;-1278;-138;-81;-55
498832;1;1;0;504;-509;3858;-1293;-145;-76;-56
498842;1;1;0;504;-510;3843;-1273;-144;-66;-60
498852;1;1;0;504;-508;3845;-1264;-138;-57;-59
498862;1;1;0;505;-498;3852;-1292;-142;-56;-66
498872;1;1;0;505;-506;3867;-1273;-146;-61;-72
498882;1;1;0;505;-500;3868;-1278;-147;-51;-65
498892;1;1;0;505;-481;3870;-1258;-138;-47;-68
498902;1;1;0;505;-484;3849;-1263;-126;-45;-76
498912;1;1;0;505;-497;3848;-1264;-127;-52;-90
498922;1;1;0;505;-510;3842;-1277;-143;-55;-95
498932;1;1;0;505;-519;3847;-1284;-145;-64;-93
498942;1;1;0;505;-516;3846;-1283;-138;-66;-80
498952;1;1;0;505;-525;3855;-1276;-135;-69;-68
498962;1;1;0;505;-515;3859;-1275;-142;-70;-74
498972;1;1;0;505;-504;3867;-1258;-136;-79;-71
498982;1;1;0;505;-497;3869;-1258;-131;-82;-67
498992;1;1;0;505;-505;3859;-1288;-128;-78;-58
499002;1;1;0;505;-500;3845;-1302;-138;-61;-48
499012;1;1;0;505;-512;3846;-1283;-143;-62;-56
499022;1;1;0;505;-502;3836;-1274;-137;-66;-67
499032;1;1;0;505;-515;3847;-1270;-142;-70;-76
499042;1;1;0;505;-505;3859;-1270;-139;-72;-75
499052;1;1;0;505;-498;3848;-1260;-143;-73;-68
499062;1;1;0;505;-514;3853;-1281;-140;-76;-71
499072;1;1;0;505;-512;3862;-1275;-148;-72;-72
499082;1;1;0;505;-516;3876;-1288;-139;-67;-75
499092;1;1;0;505;-507;3857;-1274;-148;-62;-69
499102;1;1;0;505;-507;3858;-1279;-150;-57;-74
499112;1;1;0;505;-506;3853;-1289;-172;-72;-83
499122;1;1;0;505;-513;3837;-1279;-173;-97;-93
499132;1;1;0;505;-496;3868;-1268;-171;-103;-84
499142;1;1;0;505;-509;3862;-1264;-163;-88;-61
499152;1;1;0;505;-506;3869;-1254;-141;-80;-36
499162;1;1;0;505;-502;3884;-1261;-138;-92;-29
499172;1;1;0;505;-500;3874;-1255;-137;-109;-23
499182;1;1;0;505;-498;3862;-1268;-134;-136;-35
499192;1;1;0;505;-499;3847;-1259;-137;-128;-44
499202;1;1;0;505;-511;3854;-1273;-137;-124;-59
499212;1;1;0;505;-521;3861;-1294;-155;-118;-62
499222;1;1;0;505;-512;3868;-1284;-162;-102;-55
499232;1;1;0;505;-513;3859;-1277;-145;-101;-54
499242;1;1;0;505;-505;3850;-1255;-138;-106;-55
499252;1;1;0;505;-504;3856;-1290;-150;-111;-54
499262;1;1;0;505;-486;3859;-1300;-149;-115;-47
499272;1;1;0;505;-482;3863;-1274;-152;-103;-45
499282;1;1;0;505;-488;3870;-1281;-151;-103;-46
499292;1;1;0;505;-497;3846;-1277;-153;-103;-53
499302;1;1;0;505;-502;3852;-1275;-164;-96;-62
499312;1;1;0;505;-492;3864;-1277;-172;-95;-62
499322;1;1;0;505;-500;3873;-1267;-179;-103;-61
499332;1;1;0;505;-508;3864;-1267;-184;-108;-63
499342;1;1;0;505;-480;3854;-1260;-169;-119;-61
499352;1;1;0;505;-501;3859;-1265;-165;-135;-51
499362;1;1;0;506;-508;3851;-1247;-148;-149;-52
499372;1;1;0;506;-499;3863;-1264;-141;-145;-46
499382;1;1;0;506;-493;3846;-1243;-144;-145;-44
499392;1;1;0;506;-498;3851;-1280;-143;-164;-52
499402;1;1;0;506;-495;3849;-1277;-162;-164;-63
499412;1;1;0;506;-510;3847;-1285;-157;-160;-65
499422;1;1;0;506;-512;3852;-1272;-145;-164;-62
499432;1;1;0;506;-504;3874;-1282;-150;-170;-49
499442;1;1;0;506;-514;3868;-1283;-153;-168;-40
499452;1;1;0;506;-501;3878;-1264;-147;-158;-27
499462;1;1;0;506;-479;3866;-1267;-144;-149;-17
499472;1;1;0;506;-489;3851;-1286;-125;-143;-22
499482;1;1;0;506;-486;3859;-1292;-128;-136;-42
499492;1;1;0;506;-495;3841;-1280;-144;-130;-52
499502;1;1;0;506;-494;3846;-1298;-145;-123;-53
499512;1;1;0;506;-482;3857;-1280;-148;-117;-46
499522;1;1;0;506;-479;3852;-1274;-143;-112;-49
499532;1;1;0;506;-485;3855;-1266;-146;-110;-68
499542;1;1;0;506;-507;3863;-1291;-144;-126;-77
499552;1;1;0;506;-481;3872;-1297;-137;-135;-75
499562;1;1;0;506;-497;3869;-1266;-147;-132;-62
499572;1;1;0;506;-486;3865;-1267;-137;-129;-49
499582;1;1;0;506;-488;3856;-1258;-146;-123;-51
499592;1;1;0;506;-485;3855;-1270;-138;-126;-51
499602;1;1;0;506;-484;3846;-1276;-156;-113;-63
499612;1;1;0;506;-481;3849;-1286;-163;-111;-75
499622;1;1;0;506;-494;3844;-1283;-159;-107;-83
499632;1;1;0;506;-494;3845;-1301;-154;-113;-83
499642;1;1;0;506;-495;3860;-1268;-145;-114;-81
499652;1;1;0;506;-499;3860;-1254;-151;-113;-81
499662;1;1;0;506;-500;3863;-1267;-153;-126;-84
499672;1;1;0;506;-489;3871;-1254;-149;-134;-79
499682;1;1;0;506;-509;3866;-1252;-154;-131;-73
499692;1;1;0;506;-510;3857;-1264;-150;-125;-63
499702;1;1;0;506;-502;3855;-1271;-139;-122;-58
499712;1;1;0;506;-490;3856;-1262;-148;-107;-57
499722;1;1;0;506;-503;3864;-1275;-140;-88;-65
499732;1;1;0;506;-487;3840;-1263;-140;-74;-73
499742;1;1;0;506;-491;3864;-1284;-141;-82;-81
499752;1;1;0;506;-507;3877;-1283;-139;-98;-81
499762;1;1;0;506;-486;3878;-1263;-137;-105;-78
499772;1;1;0;506;-494;3880;-1252;-136;-107;-79
499782;1;1;0;506;-499;3872;-1260;-136;-110;-83
499792;1;1;0;506;-492;3853;-1270;-139;-100;-87
499802;1;1;0;506;-497;3850;-1282;-142;-83;-96
499812;1;1;0;506;-504;3850;-1283;-156;-66;-92
499822;1;1;0;506;-489;3837;-1271;-150;-76;-105
499832;1;1;0;506;-507;3842;-1268;-159;-80;-112
499842;1;1;0;506;-504;3852;-1261;-157;-91;-115
499852;1;1;0;506;-493;3871;-1241;-152;-104;-102
499862;1;1;0;507;-507;3868;-1238;-139;-93;-98
499872;1;1;0;507;-511;3881;-1258;-139;-81;-77
499882;1;1;0;507;-497;3861;-1261;-147;-84;-75
499892;1;1;0;507;-496;3866;-1264;-138;-97;-81
499902;1;1;0;507;-511;3864;-1270;-143;-100;-83
499912;1;1;0;507;-512;3869;-1281;-152;-95;-79
499922;1;1;0;507;-512;3865;-1268;-163;-84;-79
499932;1;1;0;507;-509;3864;-1272;-159;-75;-79
499942;1;1;0;507;-492;3857;-1260;-144;-79;-84
499952;1;1;0;507;-494;3850;-1258;-134;-90;-76
499962;1;1;0;507;-498;3852;-1248;-136;-90;-76
499972;1;1;0;507;-478;3849;-1263;-150;-84;-79
499982;1;1;0;507;-506;3855;-1269;-153;-91;-87
499992;1;1;0;507;-503;3863;-1280;-147;-102;-92
500002;1;1;0;507;-509;3860;-1278;-155;-90;-93
500012;1;1;0;507;-524;3866;-1267;-162;-76;-84
500022;1;1;0;507;-508;3869;-1273;-147;-83;-76
500032;1;1;0;507;-505;3864;-1258;-157;-86;-70
500042;1;1;0;507;-518;3869;-1254;-149;-100;-64
500052;1;1;0;507;-519;3867;-1284;-140;-107;-70
500062;1;1;0;507;-502;3859;-1273;-144;-115;-72
500072;1;1;0;507;-501;3864;-1288;-138;-111;-66
500082;1;1;0;507;-497;3857;-1290;-147;-100;-65
500092;1;1;0;507;-498;3849;-1268;-147;-95;-74
500102;1;1;0;507;-509;3856;-1263;-137;-106;-82
500112;1;1;0;507;-500;3849;-1279;-148;-115;-83
500122;1;1;0;507;-506;3860;-1262;-146;-120;-87
500132;1;1;0;507;-519;3867;-1289;-151;-120;-73
500142;1;1;0;507;-522;3861;-1285;-146;-114;-60
500152;1;1;0;507;-515;3855;-1274;-136;-110;-51
500162;1;1;0;507;-527;3865;-1254;-142;-106;-53
500172;1;1;0;507;-524;3846;-1278;-142;-105;-63
500182;1;1;0;507;-510;3849;-1279;-154;-95;-64
500192;1;1;0;507;-509;3861;-1267;-156;-99;-63
500202;1;1;0;507;-508;3852;-1279;-152;-99;-66
500212;1;1;0;507;-505;3859;-1275;-141;-101;-65
500222;1;1;0;507;-511;3859;-1273;-141;-100;-66
500232;1;1;0;507;-516;3862;-1271;-152;-108;-65
500242;1;1;0;507;-502;3866;-1260;-145;-104;-58
500252;1;1;0;507;-517;3849;-1258;-149;-106;-70
500262;1;1;0;507;-526;3854;-1264;-140;-116;-72
500272;1;1;0;507;-512;3852;-1278;-151;-123;-79
500282;1;1;0;507;-524;3847;-1284;-167;-125;-77
500292;1;1;0;507;-522;3841;-1272;-169;-127;-81
500302;1;1;0;507;-516;3844;-1280;-166;-129;-90
500312;1;1;0;507;-531;3847;-1266;-156;-136;-99
500322;1;1;0;507;-528;3860;-1270;-162;-138;-110
500332;1;1;0;507;-521;3853;-1251;-158;-142;-119
500342;1;1;0;507;-551;3867;-1243;-153;-155;-128
500352;1;1;0;507;-554;3872;-1250;-149;-187;-135
500362;1;1;0;508;-556;3881;-1222;-155;-215;-129
500372;1;1;0;508;-568;3877;-1237;-159;-240;-110
500382;1;1;0;508;-557;3878;-1237;-166;-248;-74
500392;1;1;0;508;-531;3862;-1275;-168;-243;-52
500402;1;1;0;508;-542;3849;-1279;-164;-234;-43
500412;1;1;0;508;-528;3841;-1289;-159;-221;-42
500422;1;1;0;508;-513;3832;-1315;-166;-195;-51
500432;1;1;0;508;-504;3825;-1312;-155;-165;-76
500442;1;1;0;508;-513;3832;-1313;-166;-140;-110
500452;1;1;0;508;-501;3842;-1269;-171;-139;-146
500462;1;1;0;508;-520;3856;-1275;-165;-144;-165
500472;1;1;0;508;-533;3865;-1274;-174;-151;-164
500482;1;1;0;508;-535;3858;-1255;-187;-145;-159
500492;1;1;0;508;-550;3870;-1237;-182;-164;-158
500502;1;1;0;508;-548;3862;-1257;-187;-183;-156
500512;1;1;0;508;-542;3858;-1282;-193;-193;-156
500522;1;1;0;508;-547;3844;-1296;-186;-202;-152
500532;1;1;0;508;-546;3839;-1305;-191;-212;-160
500542;1;1;0;508;-537;3846;-1265;-186;-225;-172
500552;1;1;0;508;-551;3846;-1257;-179;-222;-158
500562;1;1;0;508;-538;3860;-1266;-170;-191;-122
500572;1;1;0;508;-531;3878;-1252;-148;-171;-77
500582;1;1;0;508;-522;3873;-1265;-151;-176;-52
500592;1;1;0;508;-532;3859;-1264;-166;-187;-69
500602;1;1;0;508;-527;3853;-1264;-159;-196;-91
500612;1;1;0;508;-555;3842;-1286;-162;-193;-114
500622;1;1;0;508;-574;3855;-1285;-175;-191;-124
500632;1;1;0;508;-578;3858;-1286;-172;-193;-116
500642;1;1;0;508;-573;3874;-1266;-175;-185;-113
500652;1;1;0;508;-569;3875;-1249;-167;-184;-102
500662;1;1;0;508;-559;3873;-1234;-157;-203;-92
500672;1;1;0;508;-576;3881;-1241;-159;-246;-84
500682;1;1;0;508;-574;3873;-1210;-164;-285;-63
500692;1;1;0;508;-553;3874;-1227;-177;-296;-29
500702;1;1;0;508;-565;3856;-1226;-172;-313;9
500712;1;1;0;508;-557;3847;-1250;-178;-319;8
500722;1;1;0;508;-540;3835;-1268;-188;-328;-2
500732;1;1;0;508;-536;3843;-1265;-194;-336;-25
500742;1;1;0;508;-531;3851;-1276;-202;-338;-45
500752;1;1;0;508;-545;3854;-1289;-208;-325;-75
500762;1;1;0;508;-556;3856;-1293;-220;-317;-105
500772;1;1;0;508;-552;3871;-1296;-215;-309;-116
500782;1;1;0;508;-533;3864;-1272;-218;-285;-117
500792;1;1;0;508;-549;3851;-1274;-226;-271;-127
500802;1;1;0;508;-547;3871;-1277;-229;-295;-139
500812;1;1;0;508;-574;3855;-1277;-223;-299;-124
500822;1;1;0;508;-605;3873;-1257;-210;-275;-89
500832;1;1;0;508;-599;3867;-1244;-181;-243;-56
500842;1;1;0;508;-577;3875;-1249;-159;-208;-38
500852;1;1;0;508;-563;3841;-1240;-141;-189;-35
500862;1;1;0;509;-539;3842;-1227;-128;-194;-49
500872;1;1;0;509;-534;3816;-1215;-120;-210;-54
500882;1;1;0;509;-563;3838;-1227;-111;-250;-59
500892;1;1;0;509;-582;3845;-1225;-117;-302;-64
500902;1;1;0;509;-589;3856;-1233;-140;-351;-65
500912;1;1;0;509;-633;3883;-1216;-151;-383;-35
500922;1;1;0;509;-612;3918;-1228;-161;-397;7
500932;1;1;0;509;-579;3926;-1237;-156;-370;48
500942;1;1;0;509;-567;3904;-1270;-166;-328;83
500952;1;1;0;509;-528;3860;-1288;-152;-290;93
500962;1;1;0;509;-516;3822;-1305;-161;-266;76
500972;1;1;0;509;-528;3813;-1286;-178;-279;58
500982;1;1;0;509;-551;3805;-1261;-196;-319;25
500992;1;1;0;509;-599;3825;-1236;-212;-388;3
501002;1;1;0;509;-649;3885;-1202;-209;-451;-2
501012;1;1;0;509;-706;3900;-1200;-195;-487;46
501022;1;1;0;509;-711;3914;-1186;-147;-474;98
501032;1;1;0;509;-681;3958;-1215;-118;-425;169
501042;1;1;0;509;-603;3937;-1237;-97;-323;197
501052;1;1;0;509;-605;3900;-1266;-101;-277;218
501062;1;1;0;509;-644;3838;-1267;-131;-296;245
501072;1;1;0;509;-678;3808;-1287;-178;-364;257
501082;1;1;0;509;-666;3798;-1245;-218;-467;201
501092;1;1;0;509;-684;3809;-1221;-235;-580;119
501102;1;1;0;509;-699;3850;-1181;-231;-651;42
501112;1;1;0;509;-674;3927;-1147;-212;-633;59
501122;1;1;0;509;-578;3927;-1160;-219;-463;146
501132;1;1;0;509;-457;3817;-1141;-192;-290;194
501142;1;1;0;509;-406;3744;-1178;-190;-269;148
501152;1;1;0;509;-391;3683;-1210;-233;-389;5
501162;1;1;0;509;-376;3683;-1202;-314;-561;-170
501172;1;1;0;509;-434;3752;-1238;-403;-729;-323
501182;1;1;0;509;-559;3810;-1257;-503;-867;-424
501192;1;1;0;509;-655;3902;-1256;-530;-968;-458
501202;1;1;0;509;-664;3974;-1224;-524;-959;-405
501212;1;1;0;509;-573;4002;-1212;-486;-764;-320
501222;1;1;0;509;-514;3916;-1195;-402;-568;-279
501232;1;1;0;509;-506;3818;-1221;-337;-495;-236
501242;1;1;0;509;-508;3743;-1214;-345;-544;-245
501252;1;1;0;509;-442;3727;-1214;-396;-675;-350
501262;1;1;0;509;-458;3765;-1180;-462;-875;-475
501272;1;1;0;509;-543;3859;-1165;-529;-1046;-555
501282;1;1;0;509;-634;3937;-1129;-544;-1162;-512
501292;1;1;0;509;-712;3997;-1124;-502;-1206;-388
501302;1;1;0;509;-777;4023;-1081;-434;-1213;-240
501312;1;1;0;509;-710;4021;-1077;-355;-1148;-102
501322;1;1;0;509;-641;3917;-1064;-264;-1030;-18
501332;1;1;0;509;-602;3833;-1111;-182;-904;-6
501342;1;1;0;509;-578;3789;-1175;-141;-840;-69
501352;1;1;0;509;-641;3771;-1189;-151;-879;-128
501362;1;1;0;510;-745;3835;-1184;-203;-974;-163
501372;1;1;0;510;-797;3975;-1166;-273;-1044;-112
501382;1;1;0;510;-669;4016;-1138;-368;-990;-24
501392;1;1;0;510;-586;3982;-1158;-394;-862;4
501402;1;1;0;510;-581;3962;-1197;-401;-796;43
501412;1;1;0;510;-584;3882;-1175;-445;-836;100
501422;1;1;0;510;-499;3833;-1142;-525;-978;55
501432;1;1;0;510;-438;3819;-1107;-619;-1195;-127
501442;1;1;0;510;-455;3836;-1066;-686;-1449;-347
501452;1;1;0;510;-548;3902;-1078;-749;-1641;-465
501462;1;1;0;510;-633;3942;-1065;-762;-1715;-434
501472;1;1;0;510;-739;3982;-1054;-708;-1709;-316
501482;1;1;0;510;-795;3986;-1044;-634;-1663;-158
501492;1;1;0;510;-814;3966;-1014;-512;-1598;7
501502;1;1;0;510;-729;3948;-978;-420;-1500;158
501512;1;1;0;510;-690;3875;-967;-318;-1404;242
501522;1;1;0;510;-640;3851;-994;-229;-1317;274
501532;1;1;0;510;-637;3840;-1047;-186;-1277;241
501542;1;1;0;510;-697;3818;-1065;-198;-1283;155
501552;1;1;0;510;-812;3869;-1098;-226;-1320;91
501562;1;1;0;510;-862;3933;-1076;-303;-1335;90
501572;1;1;0;510;-746;3847;-1048;-337;-1207;139
501582;1;1;0;510;-652;3788;-1074;-345;-1039;163
501592;1;1;0;510;-569;3758;-1152;-328;-956;87
501602;1;1;0;510;-529;3780;-1207;-382;-1007;-96
501612;1;1;0;510;-550;3874;-1241;-490;-1150;-250
501622;1;1;0;510;-620;3960;-1216;-575;-1318;-306
501632;1;1;0;510;-685;4029;-1137;-640;-1401;-257
501642;1;1;0;510;-768;4074;-1037;-651;-1403;-145
501652;1;1;0;510;-851;4088;-1005;-594;-1380;-23
501662;1;1;0;510;-917;4041;-972;-526;-1343;101
501672;1;1;0;510;-961;3992;-913;-445;-1308;265
501682;1;1;0;510;-918;3939;-831;-334;-1246;468
501692;1;1;0;510;-822;3848;-789;-261;-1177;581
501702;1;1;0;510;-692;3771;-748;-199;-1163;593
501712;1;1;0;510;-641;3692;-748;-157;-1290;503
501722;1;1;0;510;-658;3740;-748;-161;-1546;318
501732;1;1;0;510;-663;3845;-778;-233;-1763;209
501742;1;1;0;510;-601;3870;-801;-272;-1804;132
501752;1;1;0;510;-633;3924;-851;-317;-1800;53
501762;1;1;0;510;-684;3928;-937;-378;-1861;59
501772;1;1;0;510;-674;3952;-994;-464;-1919;94
501782;1;1;0;510;-689;3975;-1026;-550;-1963;68
501792;1;1;0;510;-788;4004;-1010;-684;-2058;29
501802;1;1;0;510;-846;4003;-960;-781;-2170;4
501812;1;1;0;510;-882;3982;-975;-868;-2221;39
501822;1;1;0;510;-912;3991;-943;-891;-2178;114
501832;1;1;0;510;-902;3981;-934;-853;-2087;206
501842;1;1;0;510;-869;3983;-900;-775;-1928;300
501852;1;1;0;510;-785;3953;-858;-682;-1748;341
501862;1;1;0;511;-721;3936;-841;-582;-1604;373
501872;1;1;0;511;-701;3925;-838;-537;-1511;401
501882;1;1;0;511;-655;3934;-801;-497;-1493;422
501892;1;1;0;511;-639;3990;-755;-460;-1515;435
501902;1;1;0;511;-664;4058;-738;-448;-1548;502
501912;1;1;0;511;-629;4058;-719;-436;-1550;605
501922;1;1;0;511;-584;3998;-712;-453;-1490;658
501932;1;1;0;511;-571;3894;-760;-481;-1440;633
501942;1;1;0;511;-536;3835;-832;-506;-1389;477
501952;1;1;0;511;-529;3795;-892;-581;-1339;267
501962;1;1;0;511;-561;3791;-933;-658;-1296;91
501972;1;1;0;511;-637;3841;-969;-735;-1227;-19
501982;1;1;0;511;-709;3913;-945;-783;-1128;-33
501992;1;1;0;511;-801;3993;-901;-793;-1047;10
502002;1;1;0;511;-784;4090;-838;-768;-984;86
502012;1;1;0;511;-764;4075;-730;-686;-902;170
502022;1;1;0;511;-683;4027;-622;-591;-761;191
502032;1;1;0;511;-579;3965;-589;-527;-617;127
502042;1;1;0;511;-544;3925;-603;-517;-558;-11
502052;1;1;0;511;-544;3916;-619;-564;-619;-121
502062;1;1;0;511;-583;3947;-643;-643;-726;-158
502072;1;1;0;511;-681;3968;-635;-715;-819;-127
502082;1;1;0;511;-806;3957;-606;-764;-892;-62
502092;1;1;0;511;-852;3963;-550;-752;-976;-24
502102;1;1;0;511;-814;3970;-519;-681;-1080;1
502112;1;1;0;511;-749;3954;-498;-599;-1099;-1
502122;1;1;0;511;-707;3949;-485;-532;-1118;-37
502132;1;1;0;511;-668;3964;-516;-503;-1214;8
502142;1;1;0;511;-665;3950;-513;-506;-1277;33
502152;1;1;0;511;-661;3932;-499;-494;-1353;48
502162;1;1;0;511;-635;3982;-529;-492;-1435;-18
502172;1;1;0;511;-697;3982;-534;-473;-1467;-71
502182;1;1;0;511;-710;4013;-557;-439;-1466;-99
502192;1;1;0;511;-713;4018;-541;-407;-1428;-111
502202;1;1;0;511;-728;4023;-516;-375;-1393;-107
502212;1;1;0;511;-737;4033;-533;-390;-1390;-72
502222;1;1;0;511;-770;4014;-548;-442;-1421;-13
502232;1;1;0;511;-780;4012;-554;-498;-1483;39
502242;1;1;0;511;-789;4008;-563;-551;-1545;61
502252;1;1;0;511;-774;3990;-535;-584;-1586;46
502262;1;1;0;511;-792;4022;-501;-591;-1598;20
502272;1;1;0;511;-806;4000;-470;-595;-1584;27
502282;1;1;0;511;-790;4018;-456;-585;-1576;55
502292;1;1;0;511;-762;4038;-437;-601;-1533;78
502302;1;1;0;511;-754;4007;-411;-588;-1495;102
502312;1;1;0;511;-768;4026;-415;-579;-1479;139
502322;1;1;0;511;-765;4013;-423;-590;-1490;202
502332;1;1;0;511;-735;3996;-428;-593;-1485;265
502342;1;1;0;511;-715;4011;-443;-590;-1482;292
502352;1;1;0;511;-730;4029;-488;-598;-1483;310
