timestamp;subject_id;activity;label;seq;ax;ay;az;gx;gy;gz
562862;1;2;0;633;939;3366;-2217;-222;-39;-116
562872;1;2;0;633;928;3381;-2204;-209;-43;-128
562882;1;2;0;633;900;3407;-2166;-205;-52;-133
562892;1;2;0;633;895;3407;-2188;-203;-71;-132
562902;1;2;0;633;928;3393;-2198;-196;-75;-144
562912;1;2;0;633;962;3374;-2203;-210;-78;-177
562922;1;2;0;633;958;3371;-2248;-253;-67;-196
562932;1;2;0;633;930;3357;-2278;-283;-62;-213
562942;1;2;0;633;900;3370;-2253;-310;-80;-221
562952;1;2;0;633;898;3380;-2249;-331;-85;-224
562962;1;2;0;633;919;3390;-2249;-342;-95;-233
562972;1;2;0;633;924;3392;-2257;-367;-104;-236
562982;1;2;0;633;897;3405;-2270;-390;-109;-227
562992;1;2;0;633;878;3401;-2287;-413;-96;-194
563002;1;2;0;633;873;3384;-2314;-418;-89;-159
563012;1;2;0;633;890;3362;-2312;-427;-95;-157
563022;1;2;0;633;925;3357;-2292;-437;-82;-165
563032;1;2;0;633;929;3340;-2298;-453;-53;-175
563042;1;2;0;633;897;3365;-2277;-475;-38;-189
563052;1;2;0;633;898;3373;-2281;-503;-30;-199
563062;1;2;0;633;928;3392;-2288;-509;-14;-213
563072;1;2;0;633;949;3401;-2302;-527;20;-212
563082;1;2;0;633;953;3388;-2299;-530;46;-204
563092;1;2;0;633;905;3374;-2267;-536;33;-220
563102;1;2;0;633;892;3372;-2257;-540;-12;-250
563112;1;2;0;633;868;3403;-2252;-552;-56;-263
563122;1;2;0;633;851;3392;-2218;-573;-75;-250
563132;1;2;0;633;855;3422;-2197;-616;-84;-233
563142;1;2;0;633;892;3449;-2227;-657;-74;-218
563152;1;2;0;633;897;3445;-2257;-686;-36;-194
563162;1;2;0;633;875;3467;-2282;-715;9;-166
563172;1;2;0;633;880;3462;-2272;-723;51;-146
563182;1;2;0;633;868;3450;-2221;-711;83;-157
563192;1;2;0;633;845;3437;-2192;-677;94;-165
563202;1;2;0;633;820;3421;-2185;-660;125;-173
563212;1;2;0;633;830;3431;-2184;-633;163;-189
563222;1;2;0;633;832;3431;-2147;-625;220;-182
563232;1;2;0;633;848;3439;-2098;-620;247;-173
563242;1;2;0;633;835;3485;-2090;-620;257;-177
563252;1;2;0;633;845;3515;-2072;-636;252;-169
563262;1;2;0;633;895;3533;-2050;-638;255;-129
563272;1;2;0;633;892;3550;-2056;-633;265;-76
563282;1;2;0;633;880;3552;-2056;-635;280;-22
563292;1;2;0;633;891;3533;-2087;-641;310;36
563302;1;2;0;633;889;3478;-2105;-635;332;56
563312;1;2;0;633;871;3431;-2097;-633;344;21
563322;1;2;0;633;866;3431;-2054;-648;333;-73
563332;1;2;0;633;926;3463;-2028;-665;331;-184
563342;1;2;0;633;972;3498;-2029;-690;342;-290
563352;1;2;0;633;998;3554;-2043;-728;336;-359
563363;1;2;0;634;981;3626;-2066;-769;332;-373
563373;1;2;0;634;914;3664;-2051;-829;371;-322
563383;1;2;0;634;827;3659;-2036;-849;382;-225
563393;1;2;0;634;804;3600;-2056;-845;385;-182
563403;1;2;0;634;838;3508;-1978;-863;420;-128
563413;1;2;0;634;853;3443;-1959;-855;467;-114
563423;1;2;0;634;881;3395;-1942;-830;466;-123
563433;1;2;0;634;896;3379;-1920;-764;418;-162
563443;1;2;0;634;843;3429;-1926;-447;542;-184
563453;1;2;0;634;888;3472;-1887;-657;198;-72
563463;1;2;0;634;921;3500;-1824;-639;44;7
563473;1;2;0;634;911;3581;-1797;-541;8;95
563483;1;2;0;634;922;3633;-1764;-566;-143;227
563493;1;2;0;634;931;3667;-1787;-530;-219;291
563503;1;2;0;634;937;3652;-1818;-521;-237;358
563513;1;2;0;634;917;3624;-1902;-472;-237;348
563523;1;2;0;634;857;3589;-2007;-428;-221;371
563533;1;2;0;634;765;3538;-2063;-423;-200;411
563543;1;2;0;634;782;3509;-2033;-410;-167;361
563553;1;2;0;634;836;3497;-1961;-388;-95;314
563563;1;2;0;634;911;3499;-1890;-344;-48;217
563573;1;2;0;634;906;3511;-1820;-299;-48;143
563583;1;2;0;634;905;3515;-1769;-273;-133;98
563593;1;2;0;634;930;3574;-1705;-242;-229;75
563603;1;2;0;634;951;3613;-1672;-187;-303;58
563613;1;2;0;634;956;3645;-1696;-148;-363;78
563623;1;2;0;634;996;3652;-1714;-107;-432;126
563633;1;2;0;634;1004;3634;-1733;-58;-488;169
563643;1;2;0;634;1007;3597;-1785;-22;-515;207
563653;1;2;0;634;983;3577;-1789;-2;-533;238
563663;1;2;0;634;943;3560;-1819;-4;-571;253
563673;1;2;0;634;937;3564;-1845;-31;-594;234
563683;1;2;0;634;977;3554;-1876;-49;-587;201
563693;1;2;0;634;989;3566;-1938;-46;-561;155
563703;1;2;0;634;995;3582;-1941;-52;-532;82
563713;1;2;0;634;1000;3593;-1902;-64;-500;14
563723;1;2;0;634;1012;3597;-1865;-52;-480;-7
563733;1;2;0;634;1042;3615;-1857;-50;-444;9
563743;1;2;0;634;1073;3590;-1854;-33;-411;50
563753;1;2;0;634;1064;3561;-1885;-44;-387;95
563763;1;2;0;634;1013;3565;-1916;-46;-367;133
563773;1;2;0;634;980;3555;-1931;-40;-354;184
563783;1;2;0;634;909;3551;-1964;-29;-336;237
563793;1;2;0;634;898;3544;-1942;2;-348;277
563803;1;2;0;634;916;3524;-1942;15;-355;295
563813;1;2;0;634;921;3513;-1931;12;-390;294
563823;1;2;0;634;928;3489;-1933;2;-457;287
563833;1;2;0;634;963;3459;-1978;-3;-509;290
563843;1;2;0;634;977;3445;-2024;18;-542;254
563853;1;2;0;634;980;3472;-2072;30;-523;216
563862;1;2;0;635;965;3475;-2097;40;-470;192
563872;1;2;0;635;932;3497;-2076;50;-415;164
563882;1;2;0;635;933;3502;-2047;72;-383;135
563892;1;2;0;635;949;3511;-2006;107;-379;94
563902;1;2;0;635;964;3507;-1958;137;-418;59
563912;1;2;0;635;956;3482;-1917;156;-502;19
563922;1;2;0;635;951;3521;-1906;140;-612;-5
563932;1;2;0;635;937;3525;-1883;120;-694;28
563942;1;2;0;635;910;3560;-1928;115;-728;111
563952;1;2;0;635;893;3551;-1950;111;-726;206
563962;1;2;0;635;892;3550;-1976;99;-717;290
563972;1;2;0;635;918;3546;-1996;104;-717;375
563982;1;2;0;635;962;3532;-2011;92;-696;439
563992;1;2;0;635;989;3540;-2060;90;-676;460
564002;1;2;0;635;985;3525;-2087;75;-629;481
564012;1;2;0;635;936;3514;-2148;65;-567;497
564022;1;2;0;635;894;3481;-2198;63;-499;551
564032;1;2;0;635;839;3433;-2237;52;-415;590
564042;1;2;0;635;821;3387;-2195;61;-316;549
564052;1;2;0;635;874;3374;-2105;117;-261;407
564062;1;2;0;635;933;3406;-2030;199;-285;202
564072;1;2;0;635;984;3425;-1955;250;-343;37
564082;1;2;0;635;1026;3466;-1900;287;-441;-56
564092;1;2;0;635;1030;3541;-1855;298;-528;-71
564102;1;2;0;635;1040;3580;-1853;316;-596;-21
564112;1;2;0;635;1033;3574;-1828;305;-644;38
564122;1;2;0;635;1014;3553;-1899;323;-684;73
564132;1;2;0;635;1028;3548;-1980;343;-688;75
564142;1;2;0;635;1046;3541;-2085;334;-667;71
564152;1;2;0;635;1013;3496;-2120;294;-615;111
564162;1;2;0;635;960;3466;-2205;273;-551;151
564172;1;2;0;635;865;3476;-2232;230;-540;206
564182;1;2;0;635;801;3445;-2219;186;-527;287
564192;1;2;0;635;831;3382;-2215;142;-519;349
564202;1;2;0;635;859;3334;-2201;143;-540;326
564212;1;2;0;635;890;3332;-2202;165;-581;240
564222;1;2;0;635;927;3384;-2190;193;-617;165
564232;1;2;0;635;958;3428;-2182;203;-633;125
564242;1;2;0;635;953;3436;-2167;219;-642;131
564252;1;2;0;635;984;3432;-2154;231;-611;190
564262;1;2;0;635;977;3425;-2143;238;-563;270
564272;1;2;0;635;1001;3392;-2154;243;-518;318
564282;1;2;0;635;1010;3377;-2191;245;-480;320
564292;1;2;0;635;1023;3394;-2206;259;-424;306
564302;1;2;0;635;1022;3429;-2263;239;-372;267
564312;1;2;0;635;1009;3482;-2247;220;-322;232
564322;1;2;0;635;1004;3500;-2215;193;-293;259
564332;1;2;0;635;980;3476;-2197;170;-275;298
564342;1;2;0;635;997;3471;-2180;155;-286;292
564352;1;2;0;635;1026;3478;-2150;143;-299;280
564362;1;2;0;636;997;3475;-2128;124;-322;339
564372;1;2;0;636;986;3436;-2132;101;-369;408
564382;1;2;0;636;955;3384;-2145;67;-458;483
564392;1;2;0;636;957;3344;-2153;9;-514;540
564402;1;2;0;636;996;3311;-2206;-23;-537;558
564412;1;2;0;636;1035;3319;-2215;-42;-529;514
564422;1;2;0;636;1032;3330;-2227;-50;-479;448
564432;1;2;0;636;1033;3349;-2244;-54;-449;394
564442;1;2;0;636;1058;3366;-2209;-44;-441;326
564452;1;2;0;636;1062;3352;-2217;-27;-437;283
564462;1;2;0;636;1055;3355;-2222;-23;-439;266
564472;1;2;0;636;1021;3380;-2200;-42;-454;268
564482;1;2;0;636;978;3415;-2184;-65;-476;324
564492;1;2;0;636;974;3428;-2214;-83;-484;411
564502;1;2;0;636;968;3416;-2186;-95;-485;493
564512;1;2;0;636;950;3378;-2156;-101;-513;544
564522;1;2;0;636;994;3351;-2183;-106;-532;544
564532;1;2;0;636;1036;3335;-2187;-99;-546;515
564542;1;2;0;636;1050;3332;-2227;-119;-550;468
564552;1;2;0;636;1074;3349;-2255;-133;-534;439
564562;1;2;0;636;1073;3351;-2272;-117;-502;399
564572;1;2;0;636;1072;3338;-2268;-99;-463;357
564582;1;2;0;636;1088;3313;-2245;-111;-437;301
564592;1;2;0;636;1070;3296;-2240;-126;-440;257
564602;1;2;0;636;1022;3292;-2260;-136;-445;229
564612;1;2;0;636;1001;3320;-2256;-151;-443;225
564622;1;2;0;636;1006;3359;-2262;-174;-422;227
564632;1;2;0;636;1015;3350;-2249;-178;-399;214
564642;1;2;0;636;1064;3332;-2266;-162;-385;164
564652;1;2;0;636;1089;3326;-2262;-161;-390;92
564662;1;2;0;636;1073;3319;-2250;-163;-415;17
564672;1;2;0;636;1078;3293;-2238;-154;-453;-84
564682;1;2;0;636;1120;3291;-2249;-154;-481;-204
564692;1;2;0;636;1108;3298;-2281;-160;-471;-297
564702;1;2;0;636;1103;3299;-2311;-177;-440;-334
564712;1;2;0;636;1057;3295;-2315;-207;-408;-321
564722;1;2;0;636;1017;3304;-2302;-223;-380;-309
564732;1;2;0;636;1015;3304;-2303;-233;-354;-311
564742;1;2;0;636;1034;3292;-2278;-228;-317;-348
564752;1;2;0;636;1050;3295;-2263;-226;-311;-418
564762;1;2;0;636;1075;3302;-2255;-226;-319;-514
564772;1;2;0;636;1101;3331;-2273;-257;-312;-630
564782;1;2;0;636;1105;3309;-2267;-284;-298;-763
564792;1;2;0;636;1105;3310;-2305;-311;-275;-937
564802;1;2;0;636;1095;3324;-2340;-366;-219;-1013
564812;1;2;0;636;998;3337;-2388;-429;-185;-976
564822;1;2;0;636;876;3344;-2374;-471;-185;-885
564832;1;2;0;636;834;3370;-2366;-498;-143;-803
564842;1;2;0;636;842;3393;-2307;-519;-62;-749
564852;1;2;0;636;911;3399;-2284;-489;-1;-766
564862;1;2;0;637;966;3400;-2280;-475;5;-844
564872;1;2;0;637;981;3406;-2263;-483;-47;-925
564882;1;2;0;637;953;3420;-2278;-505;-127;-1003
564892;1;2;0;637;944;3447;-2307;-584;-171;-1006
564902;1;2;0;637;893;3458;-2326;-680;-181;-919
564912;1;2;0;637;857;3431;-2354;-773;-149;-823
564922;1;2;0;637;817;3420;-2318;-767;-64;-766
564932;1;2;0;637;821;3415;-2223;-895;-178;-759
564942;1;2;0;637;839;3369;-2178;-917;-255;-849
564952;1;2;0;637;916;3387;-2120;-901;-307;-999
564962;1;2;0;637;932;3441;-2137;-942;-444;-1176
564972;1;2;0;637;905;3526;-2203;-1018;-558;-1229
564982;1;2;0;637;869;3585;-2252;-1109;-590;-1098
564992;1;2;0;637;775;3560;-2251;-1155;-628;-952
565002;1;2;0;637;681;3555;-2228;-1181;-677;-828
565012;1;2;0;637;671;3493;-2175;-1194;-685;-754
565022;1;2;0;637;661;3477;-2099;-1181;-713;-752
565032;1;2;0;637;687;3468;-2065;-1193;-735;-735
565042;1;2;0;637;696;3436;-2063;-1194;-715;-674
565052;1;2;0;637;736;3445;-2099;-1220;-672;-646
565062;1;2;0;637;858;3504;-2202;-1272;-555;-609
565072;1;2;0;637;909;3531;-2344;-1254;-297;-620
565082;1;2;0;637;815;3558;-2440;-1345;-213;-598
565092;1;2;0;637;705;3546;-2494;-1371;-94;-579
565102;1;2;0;637;588;3509;-2445;-1350;-15;-616
565112;1;2;0;637;542;3500;-2321;-1299;97;-676
565122;1;2;0;637;588;3425;-2185;-1215;263;-720
565132;1;2;0;637;694;3404;-2084;-1128;431;-815
565142;1;2;0;637;782;3379;-1996;-1050;578;-979
565152;1;2;0;637;822;3332;-1976;-1041;705;-1057
565162;1;2;0;637;797;3346;-1995;-1070;786;-1068
565172;1;2;0;637;770;3414;-2048;-1108;904;-997
565182;1;2;0;637;706;3550;-2086;-1124;1085;-816
565192;1;2;0;637;671;3660;-2075;-1130;1286;-566
565202;1;2;0;637;715;3699;-2014;-1130;1545;-379
565212;1;2;0;637;719;3735;-1947;-1059;1766;-299
565222;1;2;0;637;646;3733;-1907;-891;1975;-255
565232;1;2;0;637;666;3752;-1806;-654;2178;-305
565242;1;2;0;637;692;3754;-1696;-729;2015;-297
565252;1;2;0;637;771;3753;-1647;-713;2064;-282
565262;1;2;0;637;861;3767;-1697;-849;1962;-390
565272;1;2;0;637;824;3708;-1726;-914;1976;-361
565282;1;2;0;637;750;3697;-1820;-1062;1832;-283
565292;1;2;0;637;668;3661;-1795;-1119;1689;-199
565302;1;2;0;637;663;3626;-1735;-1111;1661;-133
565312;1;2;0;637;655;3610;-1639;-1078;1683;-113
565322;1;2;0;637;690;3604;-1576;-1036;1670;-119
565332;1;2;0;637;750;3632;-1526;-1004;1636;-71
565342;1;2;0;637;753;3701;-1515;-1010;1593;-3
565352;1;2;0;637;811;3726;-1464;-1012;1529;109
565362;1;2;0;638;798;3749;-1466;-941;1383;180
565372;1;2;0;638;727;3745;-1453;-822;1157;195
565382;1;2;0;638;727;3752;-1466;-728;893;212
565392;1;2;0;638;673;3732;-1469;-672;655;252
565402;1;2;0;638;638;3691;-1443;-597;448;317
565412;1;2;0;638;595;3640;-1411;-521;228;368
565422;1;2;0;638;563;3594;-1333;-419;-17;418
565432;1;2;0;638;611;3619;-1252;-297;-294;434
565442;1;2;0;638;723;3628;-1204;-188;-548;393
565452;1;2;0;638;832;3661;-1205;-86;-809;343
565462;1;2;0;638;898;3730;-1290;-1;-1074;241
565472;1;2;0;638;931;3795;-1427;46;-1249;161
565482;1;2;0;638;907;3800;-1564;72;-1386;147
565492;1;2;0;638;822;3782;-1605;95;-1475;147
565502;1;2;0;638;735;3765;-1634;114;-1565;106
565512;1;2;0;638;666;3801;-1672;75;-1624;64
565522;1;2;0;638;569;3824;-1681;14;-1668;109
565532;1;2;0;638;491;3806;-1686;-26;-1699;232
565542;1;2;0;638;512;3780;-1696;-43;-1746;318
565552;1;2;0;638;577;3725;-1667;-61;-1801;342
565562;1;2;0;638;631;3688;-1633;-79;-1852;307
565572;1;2;0;638;710;3663;-1627;-90;-1886;251
565582;1;2;0;638;726;3688;-1685;-76;-1848;231
565592;1;2;0;638;786;3725;-1710;-106;-1814;284
565602;1;2;0;638;739;3755;-1732;-127;-1805;337
565612;1;2;0;638;710;3775;-1754;-120;-1796;406
565622;1;2;0;638;661;3755;-1733;-160;-1853;479
565632;1;2;0;638;656;3725;-1677;66;-1685;465
565642;1;2;0;638;629;3705;-1630;59;-1789;453
565652;1;2;0;638;683;3700;-1633;142;-1816;397
565662;1;2;0;638;720;3697;-1724;127;-1864;384
565672;1;2;0;638;751;3680;-1771;99;-1898;399
565682;1;2;0;638;762;3664;-1847;66;-1912;407
565692;1;2;0;638;763;3671;-1893;72;-1829;416
565702;1;2;0;638;724;3667;-1922;67;-1733;427
565712;1;2;0;638;689;3619;-1876;14;-1716;442
565722;1;2;0;638;696;3595;-1810;36;-1683;423
565732;1;2;0;638;707;3565;-1732;124;-1639;361
565742;1;2;0;638;720;3566;-1743;191;-1610;296
565752;1;2;0;638;759;3581;-1752;260;-1603;232
565762;1;2;0;638;760;3597;-1765;249;-1674;235
565772;1;2;0;638;782;3625;-1771;267;-1674;265
565782;1;2;0;638;807;3650;-1844;291;-1629;323
565792;1;2;0;638;812;3658;-1904;314;-1545;396
565802;1;2;0;638;802;3645;-1919;350;-1420;458
565812;1;2;0;638;800;3638;-1937;388;-1337;474
565822;1;2;0;638;783;3640;-1918;427;-1269;476
565832;1;2;0;638;764;3623;-1888;434;-1194;488
565842;1;2;0;638;767;3612;-1892;429;-1144;521
565852;1;2;0;638;757;3624;-1874;396;-1117;556
565862;1;2;0;639;777;3621;-1876;374;-1104;606
565872;1;2;0;639;787;3616;-1851;375;-1072;657
565882;1;2;0;639;803;3608;-1848;396;-1018;708
565892;1;2;0;639;837;3590;-1865;427;-954;732
565902;1;2;0;639;866;3607;-1880;441;-879;742
565912;1;2;0;639;853;3604;-1902;458;-820;755
565922;1;2;0;639;864;3608;-1906;479;-760;749
565932;1;2;0;639;889;3568;-1937;481;-702;691
565942;1;2;0;639;926;3519;-1955;502;-645;592
565952;1;2;0;639;959;3504;-1981;501;-562;471
565962;1;2;0;639;961;3517;-2021;489;-472;370
565972;1;2;0;639;921;3571;-2047;473;-373;341
565982;1;2;0;639;876;3617;-2029;426;-261;404
565992;1;2;0;639;794;3619;-1968;427;-191;476
566002;1;2;0;639;778;3597;-1900;451;-184;505
566012;1;2;0;639;803;3591;-1875;486;-195;515
566022;1;2;0;639;821;3569;-1876;519;-231;519
566032;1;2;0;639;831;3548;-1878;549;-305;534
566042;1;2;0;639;878;3549;-1906;558;-368;564
566052;1;2;0;639;903;3530;-1966;575;-412;571
566062;1;2;0;639;890;3495;-2020;557;-420;577
566072;1;2;0;639;875;3472;-2073;555;-434;609
566082;1;2;0;639;812;3471;-2117;538;-443;682
566092;1;2;0;639;784;3485;-2125;536;-433;763
566102;1;2;0;639;800;3453;-2076;530;-409;798
566112;1;2;0;639;824;3461;-2051;574;-394;786
566122;1;2;0;639;830;3471;-2033;610;-395;774
566132;1;2;0;639;878;3457;-2061;648;-406;780
566142;1;2;0;639;874;3428;-2079;684;-413;795
566152;1;2;0;639;858;3429;-2123;709;-428;800
566162;1;2;0;639;870;3433;-2167;718;-436;811
566172;1;2;0;639;851;3456;-2189;719;-394;815
566182;1;2;0;639;819;3499;-2238;688;-323;872
566192;1;2;0;639;802;3500;-2208;640;-297;970
566202;1;2;0;639;817;3490;-2168;625;-316;1041
566212;1;2;0;639;864;3484;-2117;629;-334;1048
566222;1;2;0;639;884;3493;-2078;632;-402;1045
566232;1;2;0;639;887;3474;-2075;587;-482;1102
566242;1;2;0;639;879;3440;-2080;523;-587;1221
566252;1;2;0;639;883;3401;-2067;526;-683;1308
566262;1;2;0;639;916;3424;-2068;506;-797;1337
566272;1;2;0;639;955;3431;-2055;486;-905;1301
566282;1;2;0;639;1002;3437;-2079;466;-1018;1280
566292;1;2;0;639;1031;3413;-2120;443;-1102;1257
566302;1;2;0;639;1032;3411;-2188;425;-1166;1200
566312;1;2;0;639;1006;3383;-2256;358;-1243;1183
566322;1;2;0;639;978;3386;-2263;276;-1322;1239
566332;1;2;0;639;962;3364;-2264;208;-1358;1303
566342;1;2;0;639;965;3351;-2256;79;-1472;1380
566352;1;2;0;639;965;3351;-2255;119;-1415;1427
566362;1;2;0;640;991;3330;-2265;100;-1374;1494
566372;1;2;0;640;1048;3333;-2271;63;-1373;1517
566382;1;2;0;640;1087;3305;-2324;24;-1398;1513
566392;1;2;0;640;1059;3259;-2392;-50;-1416;1525
566402;1;2;0;640;1039;3230;-2419;-122;-1448;1531
566412;1;2;0;640;1045;3230;-2407;-146;-1497;1451
566422;1;2;0;640;1049;3255;-2411;-260;-1619;1393
566432;1;2;0;640;1023;3287;-2357;-218;-1576;1312
566442;1;2;0;640;981;3331;-2311;-225;-1596;1276
566452;1;2;0;640;922;3347;-2301;-241;-1672;1214
566462;1;2;0;640;854;3382;-2306;-360;-1853;1219
566472;1;2;0;640;808;3434;-2306;-326;-1850;1274
566482;1;2;0;640;828;3438;-2274;-345;-1843;1448
566492;1;2;0;640;856;3408;-2296;-343;-1831;1564
566502;1;2;0;640;948;3377;-2296;-337;-1806;1537
566512;1;2;0;640;981;3369;-2374;-328;-1778;1417
566522;1;2;0;640;973;3384;-2416;-345;-1772;1341
566532;1;2;0;640;964;3402;-2409;-373;-1772;1311
566542;1;2;0;640;877;3407;-2444;-341;-1687;1349
566552;1;2;0;640;833;3393;-2422;-361;-1657;1400
566562;1;2;0;640;829;3378;-2376;-381;-1677;1444
566572;1;2;0;640;831;3349;-2319;-389;-1715;1443
566582;1;2;0;640;886;3383;-2259;-387;-1783;1412
566592;1;2;0;640;975;3376;-2204;-382;-1863;1377
566602;1;2;0;640;1055;3374;-2163;-390;-1976;1383
566612;1;2;0;640;1126;3398;-2130;-426;-2114;1373
566622;1;2;0;640;1147;3332;-2226;-532;-2252;1402
566632;1;2;0;640;1081;3251;-2306;-701;-2369;1442
566642;1;2;0;640;1032;3241;-2435;-859;-2454;1521
566652;1;2;0;640;962;3278;-2579;-1224;-2708;1638
566662;1;2;0;640;1006;3186;-2515;-1086;-2455;1797
566672;1;2;0;640;998;3217;-2508;-1069;-2293;1858
566682;1;2;0;640;1073;3368;-2418;-1032;-2300;1868
566692;1;2;0;640;1155;3418;-2262;-1050;-2336;2034
566702;1;2;0;640;1205;3334;-2060;-1051;-2511;2184
566712;1;2;0;640;1194;3152;-1978;-1068;-2812;2211
566722;1;2;0;640;1123;3038;-2046;-1169;-3236;2119
566732;1;2;0;640;852;2946;-2494;-1309;-3794;1989
566742;1;2;0;640;1109;3068;-2424;-1041;-3560;1916
566752;1;2;0;640;1152;3288;-2632;-878;-3023;1571
566762;1;2;0;640;1181;3364;-2618;-701;-2799;1640
566772;1;2;0;640;1087;3373;-2476;-488;-2500;1680
566782;1;2;0;640;1015;3370;-2302;-411;-2442;1781
566792;1;2;0;640;1052;3264;-2136;-381;-2530;1890
566802;1;2;0;640;1072;3244;-2083;-345;-2723;2066
566812;1;2;0;640;1082;3158;-2125;-244;-2825;2125
566822;1;2;0;640;1211;3115;-2184;-281;-3173;2016
566832;1;2;0;640;1316;3154;-2342;70;-2932;1623
566842;1;2;0;640;1405;3196;-2473;237;-2589;1212
566852;1;2;0;640;1348;3193;-2560;307;-2086;978
566862;1;2;0;641;1263;3000;-2631;245;-1635;814
566872;1;2;0;641;1079;2909;-2691;97;-1329;642
566882;1;2;0;641;1041;2826;-2716;-89;-1114;556
566892;1;2;0;641;1099;2841;-2692;-218;-990;463
566902;1;2;0;641;1173;2920;-2606;-261;-907;317
566912;1;2;0;641;1241;3035;-2453;-291;-909;-9
566922;1;2;0;641;1321;3145;-2378;-313;-894;-523
566932;1;2;0;641;1478;3251;-2446;-423;-601;-1032
566942;1;2;0;641;1460;3230;-2666;-592;-238;-1387
566952;1;2;0;641;1329;3244;-2624;-551;-1033;-776
566962;1;2;0;641;816;3062;-2911;-629;94;-916
566972;1;2;0;641;611;3174;-2772;-708;496;-703
566982;1;2;0;641;707;3282;-2539;-700;711;-795
566992;1;2;0;641;819;3393;-2357;-674;879;-910
567002;1;2;0;641;811;3450;-2179;-596;1015;-891
567012;1;2;0;641;763;3474;-2090;-452;1043;-823
567022;1;2;0;641;751;3481;-2061;-352;1057;-682
567032;1;2;0;641;795;3392;-2141;-242;1071;-541
567042;1;2;0;641;920;3352;-2200;-89;1062;-565
567052;1;2;0;641;1014;3358;-2210;56;1022;-680
567062;1;2;0;641;1074;3357;-2258;181;1022;-789
567072;1;2;0;641;1067;3336;-2336;248;1082;-836
567082;1;2;0;641;992;3307;-2365;247;1135;-861
567092;1;2;0;641;955;3299;-2379;229;1136;-850
567102;1;2;0;641;908;3295;-2352;217;1114;-818
567112;1;2;0;641;957;3324;-2328;206;1111;-812
567122;1;2;0;641;1060;3319;-2314;195;1159;-832
567132;1;2;0;641;1169;3296;-2310;185;1241;-909
567142;1;2;0;641;1195;3296;-2331;166;1306;-1016
567152;1;2;0;641;1155;3243;-2410;141;1386;-1109
567162;1;2;0;641;1108;3187;-2464;107;1510;-1153
567172;1;2;0;641;1056;3149;-2518;67;1622;-1175
567182;1;2;0;641;1012;3147;-2526;36;1739;-1193
567192;1;2;0;641;980;3163;-2481;10;1840;-1218
567202;1;2;0;641;977;3198;-2411;11;1882;-1311
567212;1;2;0;641;1049;3249;-2341;49;1881;-1484
567222;1;2;0;641;1096;3315;-2299;90;1857;-1570
567232;1;2;0;641;1127;3321;-2310;112;1914;-1520
567242;1;2;0;641;1135;3290;-2347;134;1969;-1464
567252;1;2;0;641;1099;3217;-2399;143;2024;-1437
567262;1;2;0;641;1047;3151;-2437;159;2071;-1455
567272;1;2;0;641;1061;3157;-2444;227;2125;-1544
567282;1;2;0;641;1075;3198;-2451;321;2182;-1661
567292;1;2;0;641;1060;3226;-2423;370;2274;-1734
567302;1;2;0;641;1020;3190;-2384;407;2348;-1744
567312;1;2;0;641;966;3155;-2332;436;2353;-1778
567322;1;2;0;641;946;3171;-2298;459;2299;-1865
567332;1;2;0;641;951;3203;-2292;470;2253;-1961
567342;1;2;0;641;1001;3271;-2301;493;2221;-2082
567352;1;2;0;641;1031;3332;-2351;546;2194;-2206
567362;1;2;0;642;1017;3381;-2403;597;2211;-2255
567372;1;2;0;642;992;3378;-2444;636;2305;-2196
567382;1;2;0;642;948;3338;-2432;685;2440;-2133
567392;1;2;0;642;938;3353;-2384;683;2525;-2081
567402;1;2;0;642;932;3338;-2324;618;2583;-2009
567412;1;2;0;642;932;3347;-2261;570;2602;-1959
567422;1;2;0;642;942;3371;-2204;539;2563;-1971
567432;1;2;0;642;957;3429;-2169;523;2460;-2020
567442;1;2;0;642;956;3449;-2160;499;2371;-2014
567452;1;2;0;642;953;3445;-2200;462;2310;-1937
567462;1;2;0;642;933;3418;-2204;433;2242;-1828
567472;1;2;0;642;887;3373;-2199;384;2170;-1735
567482;1;2;0;642;861;3313;-2218;339;2090;-1704
567492;1;2;0;642;897;3339;-2232;286;1968;-1691
567502;1;2;0;642;927;3402;-2277;227;1874;-1651
567512;1;2;0;642;959;3446;-2298;191;1824;-1581
567522;1;2;0;642;965;3455;-2325;147;1808;-1483
567532;1;2;0;642;941;3433;-2350;98;1810;-1373
567542;1;2;0;642;921;3378;-2370;54;1822;-1277
567552;1;2;0;642;938;3324;-2317;10;1805;-1242
567562;1;2;0;642;940;3266;-2285;-2;1787;-1261
567572;1;2;0;642;945;3276;-2225;-24;1761;-1329
567582;1;2;0;642;969;3322;-2181;-45;1700;-1382
567592;1;2;0;642;975;3352;-2173;-56;1632;-1373
567602;1;2;0;642;967;3357;-2197;-58;1577;-1324
567612;1;2;0;642;985;3364;-2243;-84;1517;-1258
567622;1;2;0;642;997;3371;-2258;-94;1484;-1169
567632;1;2;0;642;975;3375;-2287;-114;1460;-1086
567642;1;2;0;642;954;3341;-2262;-105;1440;-1021
567652;1;2;0;642;953;3328;-2240;-79;1418;-1005
567662;1;2;0;642;957;3363;-2241;-58;1397;-1008
567672;1;2;0;642;947;3369;-2222;-32;1366;-989
567682;1;2;0;642;904;3376;-2236;-16;1301;-929
567692;1;2;0;642;859;3355;-2203;-23;1231;-819
567702;1;2;0;642;885;3309;-2149;3;1128;-758
567712;1;2;0;642;945;3325;-2184;-30;990;-738
567722;1;2;0;642;1009;3347;-2170;-64;897;-748
567732;1;2;0;642;1033;3382;-2198;-74;802;-733
567742;1;2;0;642;1033;3450;-2181;-89;697;-684
567752;1;2;0;642;1009;3461;-2210;-108;604;-625
567762;1;2;0;642;1004;3452;-2251;-131;530;-551
567772;1;2;0;642;961;3397;-2276;-92;505;-467
567782;1;2;0;642;947;3369;-2267;-111;451;-381
567792;1;2;0;642;926;3309;-2233;-128;454;-315
567802;1;2;0;642;871;3329;-2215;-170;415;-274
567812;1;2;0;642;862;3356;-2142;-269;311;-254
567822;1;2;0;642;882;3409;-2104;-335;191;-267
567832;1;2;0;642;890;3474;-2102;-383;101;-223
567842;1;2;0;642;931;3528;-2133;-415;18;-142
567852;1;2;0;642;951;3540;-2167;-399;-29;-16
567862;1;2;0;643;958;3514;-2219;-323;-5;78
567872;1;2;0;643;939;3455;-2241;-328;-50;167
567882;1;2;0;643;904;3390;-2195;-287;-54;200
567892;1;2;0;643;913;3358;-2175;-296;-121;187
567902;1;2;0;643;924;3369;-2159;-276;-127;165
567912;1;2;0;643;957;3407;-2177;-416;-263;219
567922;1;2;0;643;963;3431;-2188;-517;-361;296
567932;1;2;0;643;962;3436;-2205;-579;-462;394
567942;1;2;0;643;969;3423;-2191;-598;-536;439
567952;1;2;0;643;946;3388;-2172;-571;-658;467
567962;1;2;0;643;956;3419;-2140;-558;-708;458
567972;1;2;0;643;1011;3442;-2110;-559;-734;435
567982;1;2;0;643;1008;3426;-2104;-550;-769;393
567992;1;2;0;643;996;3423;-2166;-536;-797;322
568002;1;2;0;643;1006;3432;-2176;-538;-805;319
568012;1;2;0;643;983;3427;-2207;-555;-801;384
568022;1;2;0;643;981;3428;-2163;-544;-788;507
568032;1;2;0;643;964;3444;-2138;-548;-785;632
568042;1;2;0;643;942;3460;-2132;-557;-804;780
568052;1;2;0;643;952;3468;-2098;-573;-824;884
568062;1;2;0;643;984;3425;-2098;-588;-846;976
568072;1;2;0;643;998;3387;-2114;-583;-876;992
568082;1;2;0;643;1021;3365;-2157;-575;-911;977
568092;1;2;0;643;1020;3376;-2253;-585;-933;950
568102;1;2;0;643;993;3388;-2285;-584;-947;947
568112;1;2;0;643;984;3402;-2293;-587;-953;940
568122;1;2;0;643;991;3392;-2238;-572;-958;930
568132;1;2;0;643;974;3374;-2193;-548;-997;892
568142;1;2;0;643;990;3399;-2135;-517;-1045;858
568152;1;2;0;643;972;3407;-2082;-516;-1085;887
568162;1;2;0;643;947;3396;-2043;-512;-1161;978
568172;1;2;0;643;962;3438;-2047;-525;-1234;1087
568182;1;2;0;643;1050;3457;-2049;-559;-1280;1211
568192;1;2;0;643;1068;3432;-2059;-593;-1338;1312
568202;1;2;0;643;1106;3397;-2078;-640;-1399;1365
568212;1;2;0;643;1167;3383;-2145;-665;-1452;1377
568222;1;2;0;643;1192;3361;-2193;-695;-1443;1340
568232;1;2;0;643;1199;3343;-2240;-692;-1374;1274
568242;1;2;0;643;1195;3344;-2291;-677;-1283;1187
568252;1;2;0;643;1187;3341;-2301;-634;-1172;1129
568262;1;2;0;643;1179;3325;-2266;-586;-1049;1093
568272;1;2;0;643;1140;3348;-2220;-532;-958;1076
568282;1;2;0;643;1111;3362;-2147;-478;-914;1082
568292;1;2;0;643;1070;3392;-2084;-456;-941;1096
568302;1;2;0;643;1065;3396;-2061;-444;-1033;1127
568312;1;2;0;643;1092;3399;-2046;-442;-1127;1184
568322;1;2;0;643;1116;3387;-2089;-468;-1214;1241
568332;1;2;0;643;1139;3376;-2132;-487;-1298;1297
568342;1;2;0;643;1165;3335;-2188;-515;-1326;1362
568352;1;2;0;643;1204;3301;-2225;-519;-1286;1419
568362;1;2;0;644;1225;3259;-2236;-489;-1195;1432
568372;1;2;0;644;1232;3251;-2224;-451;-1079;1389
568382;1;2;0;644;1242;3288;-2204;-414;-989;1302
568392;1;2;0;644;1257;3325;-2192;-390;-947;1214
568402;1;2;0;644;1259;3329;-2208;-396;-917;1139
568412;1;2;0;644;1250;3326;-2227;-402;-912;1080
568422;1;2;0;644;1295;3293;-2238;-405;-885;1033
568432;1;2;0;644;1292;3259;-2230;-395;-829;964
568442;1;2;0;644;1302;3268;-2222;-376;-767;913
568452;1;2;0;644;1281;3291;-2194;-370;-707;892
568462;1;2;0;644;1228;3309;-2161;-342;-695;877
568472;1;2;0;644;1195;3347;-2126;-319;-714;850
568482;1;2;0;644;1186;3390;-2115;-316;-735;820
568492;1;2;0;644;1198;3395;-2118;-329;-722;804
568502;1;2;0;644;1221;3387;-2145;-351;-691;813
568512;1;2;0;644;1239;3364;-2166;-357;-642;827
568522;1;2;0;644;1250;3330;-2187;-369;-573;838
568532;1;2;0;644;1281;3309;-2187;-327;-507;839
568542;1;2;0;644;1294;3320;-2193;-296;-447;821
568552;1;2;0;644;1261;3327;-2148;-250;-418;771
568562;1;2;0;644;1235;3376;-2132;-229;-470;675
568572;1;2;0;644;1218;3406;-2098;-247;-568;602
568582;1;2;0;644;1230;3405;-2100;-248;-651;603
568592;1;2;0;644;1257;3349;-2085;-265;-717;612
568602;1;2;0;644;1277;3302;-2099;-264;-769;616
568612;1;2;0;644;1297;3269;-2096;-277;-777;607
568622;1;2;0;644;1350;3263;-2123;-277;-752;582
568632;1;2;0;644;1374;3310;-2179;-279;-707;562
568642;1;2;0;644;1379;3340;-2202;-286;-652;580
568652;1;2;0;644;1387;3368;-2191;-261;-612;587
568662;1;2;0;644;1376;3343;-2177;-232;-580;579
568672;1;2;0;644;1429;3303;-2160;-239;-546;592
568682;1;2;0;644;1487;3246;-2160;-227;-497;624
568692;1;2;0;644;1515;3184;-2187;-209;-429;637
568702;1;2;0;644;1441;3185;-2142;-180;-426;557
568712;1;2;0;644;1422;3284;-2131;-163;-477;437
568722;1;2;0;644;1404;3359;-2080;-159;-609;319
568732;1;2;0;644;1371;3383;-2064;-187;-747;308
568742;1;2;0;644;1326;3375;-2064;-231;-903;336
568752;1;2;0;644;1331;3351;-2075;-299;-1035;390
568762;1;2;0;644;1320;3310;-2086;-354;-1095;465
568772;1;2;0;644;1382;3266;-2126;-386;-1131;514
568782;1;2;0;644;1424;3227;-2194;-381;-939;577
568792;1;2;0;644;1429;3184;-2229;-329;-751;582
568802;1;2;0;644;1413;3195;-2256;-288;-583;523
568812;1;2;0;644;1407;3217;-2291;-258;-468;388
568822;1;2;0;644;1396;3220;-2287;-253;-379;234
568832;1;2;0;644;1380;3223;-2275;-226;-291;131
568842;1;2;0;644;1355;3234;-2233;-196;-223;89
568852;1;2;0;644;1315;3283;-2205;-166;-170;75
568862;1;2;0;645;1319;3337;-2140;-129;-132;81
568872;1;2;0;645;1332;3367;-2100;-103;-132;99
568882;1;2;0;645;1310;3409;-2091;-91;-183;116
568892;1;2;0;645;1281;3420;-2051;-87;-230;180
568902;1;2;0;645;1267;3435;-2055;-90;-304;235
568912;1;2;0;645;1266;3409;-2061;-106;-402;251
568922;1;2;0;645;1273;3385;-2076;-142;-502;261
568932;1;2;0;645;1264;3361;-2111;-214;-600;251
568942;1;2;0;645;1235;3311;-2105;-271;-733;225
568952;1;2;0;645;1257;3294;-2112;-338;-805;243
568962;1;2;0;645;1279;3276;-2120;-359;-867;253
568972;1;2;0;645;1269;3271;-2139;-370;-867;219
568982;1;2;0;645;1289;3271;-2174;-363;-833;179
568992;1;2;0;645;1308;3293;-2179;-349;-800;132
569002;1;2;0;645;1315;3274;-2214;-320;-750;110
569012;1;2;0;645;1348;3288;-2228;-287;-666;134
569022;1;2;0;645;1349;3283;-2227;-239;-579;171
569032;1;2;0;645;1340;3283;-2195;-197;-520;188
569042;1;2;0;645;1338;3323;-2158;-160;-539;179
569052;1;2;0;645;1339;3353;-2169;-165;-581;176
569062;1;2;0;645;1329;3330;-2168;-171;-620;203
569072;1;2;0;645;1331;3309;-2176;-169;-618;275
569082;1;2;0;645;1313;3306;-2181;-182;-648;299
569092;1;2;0;645;1301;3299;-2168;-194;-668;304
569102;1;2;0;645;1318;3326;-2150;-221;-650;321
569112;1;2;0;645;1319;3293;-2169;-231;-654;329
569122;1;2;0;645;1330;3302;-2171;-254;-665;334
569132;1;2;0;645;1369;3298;-2188;-271;-657;339
569142;1;2;0;645;1372;3289;-2221;-261;-632;340
569152;1;2;0;645;1377;3273;-2247;-252;-584;338
569162;1;2;0;645;1397;3229;-2278;-215;-513;308
569172;1;2;0;645;1370;3193;-2263;-178;-443;236
569182;1;2;0;645;1370;3200;-2236;-120;-373;162
569192;1;2;0;645;1354;3268;-2215;-84;-306;120
569202;1;2;0;645;1372;3310;-2181;-106;-273;109
569212;1;2;0;645;1334;3347;-2146;-127;-292;121
569222;1;2;0;645;1302;3360;-2128;-138;-363;154
569232;1;2;0;645;1320;3326;-2124;-146;-420;195
569242;1;2;0;645;1354;3264;-2140;-131;-424;235
569252;1;2;0;645;1425;3221;-2202;-96;-347;262
569262;1;2;0;645;1446;3169;-2219;-30;-226;275
569272;1;2;0;645;1459;3188;-2238;17;-106;230
569282;1;2;0;645;1459;3240;-2232;45;-22;135
569292;1;2;0;645;1441;3254;-2233;76;26;58
569302;1;2;0;645;1387;3229;-2229;115;63;-13
569312;1;2;0;645;1350;3244;-2196;160;40;-73
569322;1;2;0;645;1308;3255;-2142;183;34;-128
569332;1;2;0;645;1296;3232;-2123;233;55;-176
569342;1;2;0;645;1319;3226;-2108;282;142;-216
569352;1;2;0;645;1382;3239;-2165;339;292;-250
569362;1;2;0;646;1393;3238;-2214;421;521;-239
569372;1;2;0;646;1364;3262;-2239;486;692;-214
569382;1;2;0;646;1371;3296;-2240;559;863;-220
569392;1;2;0;646;1400;3275;-2256;659;984;-271
569402;1;2;0;646;1413;3298;-2251;765;1102;-345
569412;1;2;0;646;1424;3303;-2211;828;1051;-536
569422;1;2;0;646;1417;3341;-2205;862;1108;-605
569432;1;2;0;646;1403;3374;-2174;886;1239;-611
569442;1;2;0;646;1362;3343;-2166;899;1345;-609
569452;1;2;0;646;1322;3316;-2162;901;1451;-619
569462;1;2;0;646;1321;3276;-2142;924;1479;-671
569472;1;2;0;646;1302;3248;-2138;957;1453;-764
569482;1;2;0;646;1312;3247;-2157;966;1440;-841
569492;1;2;0;646;1301;3256;-2169;973;1440;-865
569502;1;2;0;646;1268;3257;-2215;992;1423;-850
569512;1;2;0;646;1262;3253;-2240;1007;1437;-846
569522;1;2;0;646;1269;3230;-2246;1040;1451;-867
569532;1;2;0;646;1310;3239;-2214;1087;1472;-906
569542;1;2;0;646;1328;3278;-2194;1120;1513;-917
569552;1;2;0;646;1392;3303;-2193;1129;1565;-886
569562;1;2;0;646;1442;3351;-2144;1087;1607;-848
569572;1;2;0;646;1436;3383;-2130;1009;1648;-807
569582;1;2;0;646;1438;3392;-2158;905;1679;-780
569592;1;2;0;646;1418;3343;-2207;790;1699;-764
569602;1;2;0;646;1431;3281;-2257;725;1685;-771
569612;1;2;0;646;1429;3206;-2294;680;1605;-783
569622;1;2;0;646;1423;3164;-2298;656;1472;-765
569632;1;2;0;646;1425;3129;-2348;612;1365;-686
569642;1;2;0;646;1483;3158;-2416;534;1313;-546
569652;1;2;0;646;1508;3192;-2438;416;1301;-350
569662;1;2;0;646;1524;3232;-2450;324;1313;-139
569672;1;2;0;646;1538;3221;-2483;271;1338;45
569682;1;2;0;646;1530;3119;-2480;260;1343;139
569692;1;2;0;646;1527;2997;-2484;306;1307;126
569702;1;2;0;646;1562;2886;-2469;354;1245;46
569712;1;2;0;646;1627;2826;-2492;430;1253;-104
569722;1;2;0;646;1608;2836;-2466;384;1048;-178
569732;1;2;0;646;1619;2881;-2486;364;991;-168
569742;1;2;0;646;1583;2901;-2550;360;969;-135
569752;1;2;0;646;1537;2951;-2613;346;994;-89
569762;1;2;0;646;1526;2960;-2616;344;999;-57
569772;1;2;0;646;1512;2975;-2606;345;974;-66
569782;1;2;0;646;1501;2980;-2569;339;936;-117
569792;1;2;0;646;1529;3003;-2560;318;871;-164
569802;1;2;0;646;1508;3005;-2505;294;793;-192
569812;1;2;0;646;1529;2994;-2487;256;717;-164
569822;1;2;0;646;1553;2985;-2463;200;655;-173
569832;1;2;0;646;1598;2998;-2486;133;624;-196
569842;1;2;0;646;1568;3019;-2465;60;614;-207
569852;1;2;0;646;1549;3047;-2450;12;562;-218
569862;1;2;0;647;1509;3082;-2414;-31;476;-234
569872;1;2;0;647;1500;3101;-2389;-58;406;-226
569882;1;2;0;647;1486;3123;-2382;-77;349;-182
569892;1;2;0;647;1482;3099;-2345;-111;303;-124
569902;1;2;0;647;1491;3052;-2355;-152;259;-76
569912;1;2;0;647;1530;3023;-2329;-184;214;-56
569922;1;2;0;647;1497;3021;-2288;-222;168;-52
569932;1;2;0;647;1515;3050;-2267;-267;117;-26
569942;1;2;0;647;1542;3111;-2255;-324;66;63
569952;1;2;0;647;1594;3174;-2282;-356;41;198
569962;1;2;0;647;1619;3223;-2316;-371;51;329
569972;1;2;0;647;1639;3248;-2348;-348;51;439
569982;1;2;0;647;1689;3226;-2363;-364;56;519
569992;1;2;0;647;1678;3145;-2347;-303;114;498
570002;1;2;0;647;1650;3142;-2367;-372;32;485
570012;1;2;0;647;1603;3092;-2355;-421;-45;424
570022;1;2;0;647;1577;3045;-2341;-454;-94;361
570032;1;2;0;647;1563;3029;-2293;-497;-141;321
570042;1;2;0;647;1567;3040;-2252;-552;-188;295
570052;1;2;0;647;1544;3044;-2264;-606;-254;270
570062;1;2;0;647;1563;3054;-2265;-615;-308;268
570072;1;2;0;647;1568;3063;-2271;-613;-321;273
570082;1;2;0;647;1579;3047;-2242;-575;-331;282
570092;1;2;0;647;1591;3054;-2239;-533;-354;276
570102;1;2;0;647;1542;3076;-2226;-486;-421;281
570112;1;2;0;647;1572;3131;-2223;-461;-456;331
570122;1;2;0;647;1619;3145;-2244;-457;-424;408
570132;1;2;0;647;1675;3155;-2241;-433;-366;502
570142;1;2;0;647;1723;3163;-2270;-411;-318;566
570152;1;2;0;647;1767;3132;-2263;-412;-307;611
570162;1;2;0;647;1776;3129;-2252;-432;-318;624
570172;1;2;0;647;1773;3125;-2240;-463;-363;647
570182;1;2;0;647;1815;3145;-2231;-541;-411;686
570192;1;2;0;647;1830;3096;-2214;-610;-466;695
570202;1;2;0;647;1889;3041;-2245;-679;-523;662
570212;1;2;0;647;1937;2956;-2273;-717;-530;557
570222;1;2;0;647;1946;2923;-2328;-769;-486;393
570232;1;2;0;647;1903;2941;-2367;-795;-446;171
570242;1;2;0;647;1882;2987;-2355;-792;-406;-81
570252;1;2;0;647;1845;3051;-2333;-765;-366;-286
570262;1;2;0;647;1784;3092;-2268;-709;-392;-410
570272;1;2;0;647;1745;3138;-2205;-680;-450;-435
570282;1;2;0;647;1707;3210;-2078;-685;-499;-407
570292;1;2;0;647;1668;3259;-1966;-768;-472;-373
570302;1;2;0;647;1615;3236;-2022;-785;-582;-404
570312;1;2;0;647;1636;3270;-2114;-738;-692;-434
570322;1;2;0;647;1647;3233;-2102;-634;-696;-302
570332;1;2;0;647;1675;3110;-2106;-531;-672;-87
570342;1;2;0;647;1751;2968;-2153;-424;-696;22
570352;1;2;0;647;1838;2880;-2231;-364;-705;9
570362;1;2;0;648;1885;2850;-2294;-338;-626;-2
570372;1;2;0;648;1866;2828;-2349;-297;-506;40
570382;1;2;0;648;1823;2888;-2390;-265;-395;0
570392;1;2;0;648;1796;2963;-2417;-251;-318;-78
570402;1;2;0;648;1762;3022;-2368;-220;-265;-143
570412;1;2;0;648;1718;3077;-2286;-191;-242;-185
570422;1;2;0;648;1705;3131;-2182;-167;-268;-211
570432;1;2;0;648;1700;3190;-2096;-179;-328;-225
570442;1;2;0;648;1724;3207;-2034;-218;-381;-213
570452;1;2;0;648;1731;3211;-2048;-233;-401;-192
570462;1;2;0;648;1747;3197;-2086;-238;-358;-190
570472;1;2;0;648;1728;3172;-2130;-243;-299;-189
570482;1;2;0;648;1727;3163;-2178;-258;-260;-194
570492;1;2;0;648;1710;3154;-2160;-262;-275;-239
570502;1;2;0;648;1706;3169;-2170;-251;-295;-313
570512;1;2;0;648;1685;3210;-2171;-274;-334;-408
570522;1;2;0;648;1666;3242;-2188;-343;-383;-495
570532;1;2;0;648;1659;3231;-2222;-399;-438;-586
570542;1;2;0;648;1619;3175;-2241;-419;-467;-717
570552;1;2;0;648;1564;3140;-2249;-426;-496;-877
570562;1;2;0;648;1495;3110;-2217;-434;-526;-1023
570572;1;2;0;648;1455;3168;-2195;-439;-565;-1114
570582;1;2;0;648;1446;3197;-2161;-468;-586;-1141
570592;1;2;0;648;1424;3238;-2185;-507;-602;-1145
570602;1;2;0;648;1401;3307;-2218;-546;-617;-1133
570612;1;2;0;648;1388;3324;-2230;-587;-635;-1094
570622;1;2;0;648;1404;3313;-2245;-580;-607;-1028
570632;1;2;0;648;1476;3267;-2269;-554;-516;-947
570642;1;2;0;648;1575;3186;-2282;-524;-353;-849
570652;1;2;0;648;1624;3121;-2283;-471;-162;-760
570662;1;2;0;648;1627;3080;-2269;-409;47;-695
570672;1;2;0;648;1634;3072;-2225;-335;207;-644
570682;1;2;0;648;1590;3106;-2188;-268;296;-617
570692;1;2;0;648;1584;3185;-2135;-202;282;-603
570702;1;2;0;648;1605;3276;-2148;-154;248;-563
570712;1;2;0;648;1641;3273;-2147;-134;220;-518
570722;1;2;0;648;1646;3247;-2160;-104;178;-502
570732;1;2;0;648;1592;3179;-2151;-91;125;-542
570742;1;2;0;648;1482;3177;-2168;-107;11;-661
570752;1;2;0;648;1401;3230;-2191;-185;-150;-814
570762;1;2;0;648;1302;3324;-2217;-311;-342;-959
570772;1;2;0;648;1214;3381;-2245;-458;-573;-1054
570782;1;2;0;648;1156;3397;-2233;-553;-698;-1085
570792;1;2;0;648;1130;3353;-2202;-596;-786;-1071
570802;1;2;0;648;1142;3303;-2178;-590;-830;-1017
570812;1;2;0;648;1183;3270;-2167;-561;-840;-951
570822;1;2;0;648;1218;3266;-2161;-515;-803;-879
570832;1;2;0;648;1286;3251;-2167;-451;-707;-788
570842;1;2;0;648;1363;3265;-2194;-373;-554;-693
570852;1;2;0;648;1460;3219;-2205;-282;-356;-569
570862;1;2;0;649;1496;3204;-2205;-173;-156;-459
570872;1;2;0;649;1505;3182;-2190;-91;-40;-389
570882;1;2;0;649;1466;3178;-2155;-20;15;-328
570892;1;2;0;649;1410;3213;-2093;6;-25;-280
570902;1;2;0;649;1334;3280;-2054;-28;-142;-227
570912;1;2;0;649;1282;3327;-2044;-88;-291;-189
570922;1;2;0;649;1168;3340;-2056;-143;-496;-192
570932;1;2;0;649;1084;3375;-2081;-205;-738;-234
570942;1;2;0;649;1069;3477;-2144;-314;-960;-259
570952;1;2;0;649;1021;3552;-2256;-413;-1149;-294
570962;1;2;0;649;990;3474;-2347;-493;-1265;-336
570972;1;2;0;649;1008;3360;-2379;-517;-1257;-417
570982;1;2;0;649;1040;3302;-2378;-495;-1168;-528
570992;1;2;0;649;1101;3253;-2330;-463;-1010;-619
571002;1;2;0;649;1155;3245;-2313;-399;-821;-691
571012;1;2;0;649;1208;3271;-2235;-348;-646;-723
571022;1;2;0;649;1293;3318;-2189;-297;-454;-701
571032;1;2;0;649;1338;3335;-2127;-241;-265;-620
571042;1;2;0;649;1362;3339;-2096;-197;-125;-523
571052;1;2;0;649;1350;3332;-2054;-184;-49;-418
571062;1;2;0;649;1336;3349;-2052;-154;-31;-319
571072;1;2;0;649;1303;3321;-2038;-151;-108;-245
571082;1;2;0;649;1268;3355;-2037;-164;-196;-168
571092;1;2;0;649;1240;3367;-2085;-200;-309;-119
571102;1;2;0;649;1181;3355;-2130;-244;-438;-92
571112;1;2;0;649;1073;3367;-2153;-300;-597;-120
571122;1;2;0;649;997;3402;-2144;-365;-780;-181
571132;1;2;0;649;917;3486;-2182;-463;-963;-224
571142;1;2;0;649;876;3567;-2232;-575;-1112;-236
571152;1;2;0;649;825;3576;-2304;-684;-1183;-243
571162;1;2;0;649;819;3508;-2372;-706;-1140;-279
571172;1;2;0;649;878;3407;-2409;-651;-970;-347
571182;1;2;0;649;963;3313;-2423;-557;-720;-440
571192;1;2;0;649;1032;3266;-2364;-431;-433;-517
571202;1;2;0;649;1118;3253;-2252;-293;-164;-555
571212;1;2;0;649;1171;3306;-2140;-176;53;-513
571222;1;2;0;649;1194;3347;-2050;-104;172;-464
571232;1;2;0;649;1202;3402;-1964;-66;222;-360
571242;1;2;0;649;1225;3429;-1935;-64;218;-204
571252;1;2;0;649;1216;3440;-1944;-61;151;-17
571262;1;2;0;649;1242;3435;-1996;-91;5;103
571272;1;2;0;649;1235;3408;-2081;-121;-77;213
571282;1;2;0;649;1176;3378;-2150;-128;-186;259
571292;1;2;0;649;1134;3372;-2182;-135;-286;249
571302;1;2;0;649;1101;3344;-2185;-124;-378;212
571312;1;2;0;649;1062;3368;-2188;-144;-473;150
571322;1;2;0;649;1012;3408;-2204;-214;-603;83
571332;1;2;0;649;934;3491;-2280;-330;-781;27
571342;1;2;0;649;877;3545;-2343;-485;-906;-48
571352;1;2;0;649;838;3509;-2375;-567;-946;-149
571362;1;2;0;650;854;3412;-2426;-551;-854;-261
571372;1;2;0;650;938;3270;-2414;-468;-618;-382
571382;1;2;0;650;1061;3173;-2335;-337;-318;-482
571392;1;2;0;650;1170;3161;-2254;-199;-42;-522
571402;1;2;0;650;1220;3186;-2134;-83;174;-508
571412;1;2;0;650;1283;3285;-2014;6;313;-392
571422;1;2;0;650;1299;3382;-1954;56;345;-244
571432;1;2;0;650;1298;3466;-1932;65;318;-71
571442;1;2;0;650;1309;3520;-1957;84;290;137
571452;1;2;0;650;1312;3508;-1998;88;231;316
571462;1;2;0;650;1289;3437;-2085;59;137;466
571472;1;2;0;650;1289;3389;-2132;17;19;556
571482;1;2;0;650;1306;3350;-2167;-38;-74;594
571492;1;2;0;650;1247;3303;-2186;-89;-159;577
571502;1;2;0;650;1141;3310;-2215;-175;-274;464
571512;1;2;0;650;1044;3385;-2231;-316;-387;298
571522;1;2;0;650;947;3422;-2247;-406;-477;93
571532;1;2;0;650;845;3445;-2314;-431;-507;-95
571542;1;2;0;650;816;3447;-2319;-379;-473;-192
571552;1;2;0;650;861;3403;-2309;-270;-370;-238
571562;1;2;0;650;956;3349;-2250;-133;-241;-242
571572;1;2;0;650;1044;3302;-2203;-28;-121;-227
571582;1;2;0;650;1077;3281;-2165;52;18;-159
571592;1;2;0;650;1129;3306;-2135;98;154;-63
571602;1;2;0;650;1173;3330;-2114;112;283;51
571612;1;2;0;650;1178;3368;-2130;105;384;152
571622;1;2;0;650;1191;3387;-2129;90;415;237
571632;1;2;0;650;1217;3410;-2138;56;399;337
571642;1;2;0;650;1242;3393;-2120;27;361;387
571652;1;2;0;650;1278;3363;-2151;-11;332;435
571662;1;2;0;650;1284;3312;-2121;-64;324;446
571672;1;2;0;650;1209;3313;-2113;-104;301;389
571682;1;2;0;650;1052;3270;-2093;-113;232;231
571692;1;2;0;650;935;3380;-2096;-91;108;37
571702;1;2;0;650;862;3559;-2123;-101;-15;-106
571712;1;2;0;650;784;3708;-2147;-118;-194;-155
571722;1;2;0;650;779;3725;-2181;-142;-403;-149
571732;1;2;0;650;873;3582;-2188;-133;-500;-121
571742;1;2;0;650;998;3370;-2220;-99;-506;-108
571752;1;2;0;650;1154;3171;-2268;-94;-410;-113
571762;1;2;0;650;1261;3036;-2311;-99;-234;-139
571772;1;2;0;650;1349;2985;-2328;-121;-83;-196
571782;1;2;0;650;1406;3036;-2326;-171;55;-244
571792;1;2;0;650;1418;3144;-2305;-208;133;-274
571802;1;2;0;650;1442;3248;-2229;-232;164;-251
571812;1;2;0;650;1483;3322;-2174;-242;191;-176
571822;1;2;0;650;1493;3325;-2118;-246;196;-104
571832;1;2;0;650;1459;3303;-2094;-245;191;-53
571842;1;2;0;650;1432;3284;-2112;-239;202;-53
571852;1;2;0;650;1328;3243;-2124;-217;203;-121
571863;1;2;0;651;1175;3281;-2119;-163;163;-257
571873;1;2;0;651;1046;3413;-2068;-122;56;-382
571883;1;2;0;651;963;3597;-2034;-88;-138;-423
571893;1;2;0;651;866;3751;-2014;-85;-387;-353
571903;1;2;0;651;829;3829;-2013;-128;-595;-190
571913;1;2;0;651;840;3731;-2075;-202;-685;18
571923;1;2;0;651;916;3478;-2184;-213;-654;212
571933;1;2;0;651;1028;3233;-2290;-206;-490;340
571943;1;2;0;651;1163;3069;-2365;-168;-253;375
571953;1;2;0;651;1248;2993;-2402;-119;-18;317
571963;1;2;0;651;1329;3036;-2392;-79;208;245
571973;1;2;0;651;1375;3129;-2336;-40;386;178
571983;1;2;0;651;1419;3233;-2260;-5;515;153
571993;1;2;0;651;1444;3309;-2167;-7;613;176
572003;1;2;0;651;1455;3319;-2139;-19;610;183
572013;1;2;0;651;1411;3324;-2079;-29;575;172
572023;1;2;0;651;1354;3303;-2069;-69;516;82
572033;1;2;0;651;1269;3292;-2085;-113;440;-84
572043;1;2;0;651;1141;3298;-2104;-129;322;-315
572053;1;2;0;651;1023;3402;-2065;-132;142;-539
572063;1;2;0;651;934;3581;-2038;-128;-75;-670
572073;1;2;0;651;881;3722;-2004;-166;-318;-654
572083;1;2;0;651;855;3772;-2013;-216;-564;-511
572093;1;2;0;651;883;3715;-2073;-265;-740;-296
572103;1;2;0;651;926;3526;-2139;-289;-762;-88
572113;1;2;0;651;1005;3308;-2209;-267;-680;66
572123;1;2;0;651;1103;3142;-2312;-246;-509;143
572133;1;2;0;651;1206;3028;-2385;-230;-271;154
572143;1;2;0;651;1299;3023;-2422;-186;-23;133
572153;1;2;0;651;1361;3084;-2394;-145;191;88
572163;1;2;0;651;1419;3164;-2313;-94;326;52
572173;1;2;0;651;1449;3268;-2233;-42;456;60
572183;1;2;0;651;1473;3326;-2164;-26;533;101
572193;1;2;0;651;1459;3324;-2138;-36;555;126
572203;1;2;0;651;1392;3265;-2137;-64;538;98
572213;1;2;0;651;1299;3252;-2107;-98;489;-33
572223;1;2;0;651;1150;3299;-2106;-115;397;-200
572233;1;2;0;651;1004;3463;-2063;-148;211;-382
572243;1;2;0;651;899;3664;-2031;-214;-51;-482
572253;1;2;0;651;834;3836;-2030;-280;-345;-475
572263;1;2;0;651;830;3865;-2051;-329;-595;-340
572273;1;2;0;651;874;3694;-2084;-335;-705;-152
572283;1;2;0;651;970;3430;-2156;-307;-703;-4
572293;1;2;0;651;1098;3183;-2246;-233;-593;61
572303;1;2;0;651;1219;3017;-2327;-168;-420;58
572313;1;2;0;651;1286;2967;-2343;-124;-197;30
572323;1;2;0;651;1351;3014;-2358;-79;-7;11
572333;1;2;0;651;1414;3125;-2302;-65;163;3
572343;1;2;0;651;1453;3234;-2277;-42;283;25
572353;1;2;0;651;1460;3302;-2221;-39;368;80
572362;1;2;0;652;1453;3328;-2130;-41;398;131
572372;1;2;0;652;1409;3331;-2061;-41;369;162
572382;1;2;0;652;1357;3331;-2033;-54;306;162
572392;1;2;0;652;1290;3356;-2037;-97;251;126
572402;1;2;0;652;1153;3363;-2037;-186;129;14
572412;1;2;0;652;1046;3428;-2085;-262;-15;-149
572422;1;2;0;652;973;3537;-2084;-307;-159;-285
572432;1;2;0;652;917;3641;-2103;-281;-275;-319
572442;1;2;0;652;928;3673;-2121;-237;-358;-251
572452;1;2;0;652;972;3593;-2132;-172;-392;-131
572462;1;2;0;652;1020;3429;-2152;-117;-399;-52
572472;1;2;0;652;1097;3292;-2195;-69;-360;1
572482;1;2;0;652;1177;3183;-2251;-42;-245;35
572492;1;2;0;652;1242;3144;-2274;-18;-97;48
572502;1;2;0;652;1296;3150;-2284;-23;64;69
572512;1;2;0;652;1344;3200;-2275;-23;178;82
572522;1;2;0;652;1377;3246;-2218;-20;236;102
572532;1;2;0;652;1414;3294;-2133;-27;252;130
572542;1;2;0;652;1457;3303;-2086;-18;231;176
572552;1;2;0;652;1466;3262;-2055;-30;203;193
572562;1;2;0;652;1397;3244;-2079;-59;157;144
572572;1;2;0;652;1275;3244;-2100;-115;78;-19
572582;1;2;0;652;1121;3338;-2106;-159;-50;-262
572592;1;2;0;652;987;3514;-2091;-202;-216;-490
572602;1;2;0;652;928;3736;-2074;-228;-393;-586
572612;1;2;0;652;897;3861;-2070;-239;-565;-517
572622;1;2;0;652;927;3768;-2073;-215;-662;-336
572632;1;2;0;652;1007;3540;-2106;-166;-671;-147
572642;1;2;0;652;1097;3304;-2171;-98;-581;-10
572652;1;2;0;652;1185;3107;-2263;-49;-390;54
572662;1;2;0;652;1297;2983;-2327;-7;-164;48
572672;1;2;0;652;1369;2972;-2360;32;35;0
572682;1;2;0;652;1402;3050;-2372;59;208;-44
572692;1;2;0;652;1448;3168;-2324;78;330;-60
572702;1;2;0;652;1479;3268;-2265;99;381;-61
572712;1;2;0;652;1477;3290;-2210;88;403;-26
572722;1;2;0;652;1469;3281;-2170;54;397;-8
572732;1;2;0;652;1423;3240;-2160;22;378;-50
572742;1;2;0;652;1334;3233;-2154;-31;367;-174
572752;1;2;0;652;1237;3274;-2158;-87;326;-348
572762;1;2;0;652;1107;3362;-2130;-115;241;-562
572772;1;2;0;652;992;3529;-2124;-139;104;-721
572782;1;2;0;652;926;3676;-2074;-150;-90;-768
572792;1;2;0;652;912;3770;-2064;-174;-292;-698
572802;1;2;0;652;931;3717;-2085;-193;-443;-545
572812;1;2;0;652;969;3514;-2169;-187;-504;-395
572822;1;2;0;652;1022;3292;-2284;-172;-482;-307
572832;1;2;0;652;1103;3115;-2374;-155;-352;-256
572842;1;2;0;652;1199;3030;-2423;-130;-163;-243
572852;1;2;0;652;1264;2999;-2406;-102;41;-262
572862;1;2;0;653;1318;3060;-2368;-51;203;-287
572872;1;2;0;653;1348;3149;-2293;-17;336;-283
572882;1;2;0;653;1379;3245;-2246;-4;425;-259
572892;1;2;0;653;1365;3289;-2225;8;500;-211
572902;1;2;0;653;1339;3287;-2196;45;590;-195
572912;1;2;0;653;1287;3258;-2190;87;683;-257
572922;1;2;0;653;1239;3265;-2185;127;744;-378
572932;1;2;0;653;1161;3302;-2156;167;728;-571
572942;1;2;0;653;1079;3444;-2073;200;606;-764
572952;1;2;0;653;986;3636;-2013;187;371;-876
572962;1;2;0;653;939;3807;-1987;116;53;-826
572972;1;2;0;653;912;3822;-2018;15;-185;-681
572982;1;2;0;653;934;3673;-2082;-52;-300;-535
572992;1;2;0;653;976;3412;-2182;-88;-334;-402
573002;1;2;0;653;1048;3196;-2304;-79;-259;-332
573012;1;2;0;653;1120;3044;-2364;-54;-122;-344
573022;1;2;0;653;1212;3014;-2385;-13;57;-388
573032;1;2;0;653;1283;3062;-2372;39;242;-423
573042;1;2;0;653;1354;3134;-2318;102;429;-428
573052;1;2;0;653;1417;3218;-2268;154;571;-412
573062;1;2;0;653;1444;3271;-2182;178;698;-378
573072;1;2;0;653;1410;3281;-2157;204;802;-369
573082;1;2;0;653;1347;3268;-2167;218;891;-427
573092;1;2;0;653;1260;3273;-2169;233;959;-553
573102;1;2;0;653;1169;3289;-2148;253;978;-749
573112;1;2;0;653;1101;3369;-2087;272;909;-950
573122;1;2;0;653;1028;3487;-1994;292;730;-1120
573132;1;2;0;653;1002;3602;-1915;272;439;-1221
573142;1;2;0;653;1022;3675;-1949;218;167;-1207
573152;1;2;0;653;997;3678;-2044;149;-37;-1096
573162;1;2;0;653;948;3558;-2217;71;-161;-899
573172;1;2;0;653;957;3400;-2327;22;-164;-741
573182;1;2;0;653;984;3207;-2385;-5;-101;-622
573192;1;2;0;653;1044;3101;-2406;0;-18;-589
573202;1;2;0;653;1121;3054;-2400;20;81;-593
573212;1;2;0;653;1179;3095;-2373;71;208;-611
573222;1;2;0;653;1231;3156;-2335;120;341;-641
573232;1;2;0;653;1273;3228;-2287;166;502;-659
573242;1;2;0;653;1272;3267;-2289;180;662;-664
573252;1;2;0;653;1268;3288;-2258;201;823;-673
573262;1;2;0;653;1250;3289;-2275;204;953;-711
573272;1;2;0;653;1172;3260;-2240;220;1033;-799
573282;1;2;0;653;1056;3269;-2216;279;1042;-954
573292;1;2;0;653;948;3374;-2113;325;946;-1125
573302;1;2;0;653;869;3569;-1998;323;721;-1236
573312;1;2;0;653;803;3771;-1943;238;376;-1206
573322;1;2;0;653;818;3892;-1977;114;37;-1036
573332;1;2;0;653;846;3772;-2069;12;-178;-776
573342;1;2;0;653;886;3532;-2222;-9;-232;-532
573352;1;2;0;653;953;3285;-2354;4;-161;-384
573362;1;2;0;654;1043;3088;-2434;51;16;-312
573372;1;2;0;654;1133;2996;-2458;110;205;-302
573382;1;2;0;654;1199;3018;-2465;145;418;-306
573392;1;2;0;654;1232;3097;-2454;178;577;-296
573402;1;2;0;654;1241;3195;-2400;175;697;-251
573412;1;2;0;654;1236;3267;-2350;154;736;-204
573422;1;2;0;654;1171;3291;-2268;109;755;-149
573432;1;2;0;654;1075;3304;-2216;69;685;-166
573442;1;2;0;654;980;3309;-2199;57;583;-252
573452;1;2;0;654;977;3350;-2188;73;463;-393
573462;1;2;0;654;951;3381;-2130;118;346;-517
573472;1;2;0;654;922;3435;-2067;173;222;-561
573482;1;2;0;654;885;3500;-2038;216;49;-534
573492;1;2;0;654;872;3553;-2084;221;-175;-485
573502;1;2;0;654;836;3577;-2152;167;-356;-392
573512;1;2;0;654;839;3563;-2244;86;-440;-268
573522;1;2;0;654;855;3514;-2358;15;-448;-165
573532;1;2;0;654;896;3404;-2409;-49;-414;-88
573542;1;2;0;654;965;3260;-2450;-89;-323;-54
573552;1;2;0;654;1029;3136;-2442;-79;-183;-66
573562;1;2;0;654;1107;3083;-2418;-38;13;-115
573572;1;2;0;654;1183;3056;-2381;5;232;-165
573582;1;2;0;654;1241;3108;-2330;50;437;-208
573592;1;2;0;654;1308;3176;-2293;78;601;-247
573602;1;2;0;654;1307;3248;-2287;90;705;-269
573612;1;2;0;654;1252;3292;-2290;104;757;-288
573622;1;2;0;654;1201;3298;-2273;109;776;-348
573632;1;2;0;654;1134;3287;-2289;120;788;-462
573642;1;2;0;654;1067;3268;-2291;169;761;-615
573652;1;2;0;654;979;3317;-2244;231;697;-749
573662;1;2;0;654;875;3391;-2179;267;578;-822
573672;1;2;0;654;781;3495;-2099;264;404;-806
573682;1;2;0;654;698;3637;-2010;213;82;-691
573692;1;2;0;654;710;3733;-2041;88;-219;-503
573702;1;2;0;654;776;3697;-2140;-40;-430;-308
573712;1;2;0;654;877;3534;-2276;-139;-522;-83
573722;1;2;0;654;964;3309;-2419;-163;-451;52
573732;1;2;0;654;1065;3136;-2508;-114;-258;97
573742;1;2;0;654;1156;3033;-2533;-50;-16;94
573752;1;2;0;654;1223;3013;-2507;1;203;67
573762;1;2;0;654;1235;3065;-2421;43;356;39
573772;1;2;0;654;1248;3166;-2355;41;462;16
573782;1;2;0;654;1196;3263;-2307;30;545;48
573792;1;2;0;654;1140;3309;-2275;1;583;81
573802;1;2;0;654;1076;3303;-2273;-38;594;78
573812;1;2;0;654;1007;3274;-2271;-52;559;2
573822;1;2;0;654;944;3298;-2268;-34;480;-132
573832;1;2;0;654;911;3340;-2200;15;367;-271
573842;1;2;0;654;876;3420;-2128;84;219;-344
573852;1;2;0;654;847;3492;-2031;103;-14;-337
573862;1;2;0;655;834;3578;-2004;78;-338;-242
573872;1;2;0;655;867;3615;-2088;-5;-575;-95
573882;1;2;0;655;881;3598;-2233;-139;-765;113
573892;1;2;0;655;917;3472;-2399;-249;-849;313
573902;1;2;0;655;978;3283;-2540;-300;-764;438
573912;1;2;0;655;1065;3101;-2630;-294;-563;457
573922;1;2;0;655;1149;2998;-2633;-253;-309;394
573932;1;2;0;655;1216;2969;-2559;-177;-76;303
573942;1;2;0;655;1247;3018;-2452;-110;125;230
573952;1;2;0;655;1270;3104;-2359;-99;274;192
573962;1;2;0;655;1200;3197;-2310;-115;379;179
573972;1;2;0;655;1112;3274;-2301;-148;426;152
573982;1;2;0;655;1062;3304;-2291;-175;440;97
573992;1;2;0;655;1044;3312;-2281;-155;432;-27
574002;1;2;0;655;1045;3308;-2237;-81;397;-167
574012;1;2;0;655;1025;3356;-2177;28;312;-289
574022;1;2;0;655;982;3408;-2061;106;137;-355
574032;1;2;0;655;916;3503;-1998;105;-130;-348
574042;1;2;0;655;889;3619;-2000;17;-446;-236
574052;1;2;0;655;912;3669;-2117;-113;-709;-31
574062;1;2;0;655;923;3587;-2289;-267;-848;195
574072;1;2;0;655;966;3398;-2434;-359;-868;362
574082;1;2;0;655;1034;3178;-2578;-369;-764;419
574092;1;2;0;655;1119;3009;-2599;-328;-561;367
574102;1;2;0;655;1195;2919;-2610;-251;-322;269
574112;1;2;0;655;1257;2916;-2548;-178;-77;167
574122;1;2;0;655;1301;2994;-2443;-117;124;95
574132;1;2;0;655;1314;3097;-2361;-106;290;70
574142;1;2;0;655;1266;3207;-2313;-124;383;51
574152;1;2;0;655;1186;3272;-2297;-140;436;16
574162;1;2;0;655;1126;3286;-2295;-143;453;-80
574172;1;2;0;655;1068;3300;-2294;-103;420;-241
574182;1;2;0;655;1035;3328;-2259;-52;352;-411
574192;1;2;0;655;1044;3354;-2171;38;263;-508
574202;1;2;0;655;1053;3371;-2087;100;158;-503
574212;1;2;0;655;1003;3380;-2042;135;-24;-450
574222;1;2;0;655;901;3406;-2010;103;-264;-373
574232;1;2;0;655;852;3539;-2054;1;-536;-264
574242;1;2;0;655;879;3689;-2190;-202;-778;-77
574252;1;2;0;655;904;3659;-2353;-397;-944;143
574262;1;2;0;655;975;3447;-2476;-476;-959;281
574272;1;2;0;655;1095;3213;-2563;-438;-818;304
574282;1;2;0;655;1214;2995;-2620;-333;-534;229
574292;1;2;0;655;1320;2869;-2571;-201;-177;111
574302;1;2;0;655;1348;2867;-2508;-113;114;-4
574312;1;2;0;655;1354;2948;-2421;-65;336;-87
574322;1;2;0;655;1284;3090;-2351;-75;522;-186
574332;1;2;0;655;1151;3215;-2348;-68;625;-295
574342;1;2;0;655;1053;3309;-2366;-44;662;-442
574352;1;2;0;655;1000;3402;-2313;47;657;-568
574362;1;2;0;656;978;3449;-2235;171;605;-630
574372;1;2;0;656;996;3446;-2151;224;485;-582
574382;1;2;0;656;1011;3403;-2075;234;268;-491
574392;1;2;0;656;1034;3362;-2034;191;-21;-349
574402;1;2;0;656;1027;3328;-2037;132;-240;-225
574412;1;2;0;656;974;3348;-2081;49;-471;-105
574422;1;2;0;656;958;3435;-2193;-77;-684;-27
574432;1;2;0;656;985;3525;-2328;-232;-847;71
574442;1;2;0;656;1022;3496;-2468;-356;-938;166
574452;1;2;0;656;1060;3319;-2558;-374;-904;219
574462;1;2;0;656;1149;3134;-2591;-331;-719;220
574472;1;2;0;656;1199;3020;-2576;-250;-436;166
574482;1;2;0;656;1203;2972;-2509;-222;-153;60
574492;1;2;0;656;1164;3004;-2431;-219;92;-91
574502;1;2;0;656;1100;3124;-2371;-218;292;-258
574512;1;2;0;656;1031;3273;-2287;-180;409;-405
574522;1;2;0;656;986;3423;-2256;-125;439;-497
574532;1;2;0;656;1001;3504;-2176;-31;404;-489
574542;1;2;0;656;1016;3505;-2129;39;303;-408
574552;1;2;0;656;1054;3441;-2111;88;133;-307
574562;1;2;0;656;1081;3341;-2120;86;-46;-187
574572;1;2;0;656;1049;3261;-2150;64;-231;-84
574582;1;2;0;656;1049;3236;-2200;20;-395;-9
574592;1;2;0;656;1076;3268;-2301;-57;-497;45
574602;1;2;0;656;1100;3273;-2397;-117;-545;103
574612;1;2;0;656;1094;3272;-2479;-176;-549;152
574622;1;2;0;656;1102;3223;-2513;-187;-536;171
574632;1;2;0;656;1124;3201;-2499;-195;-490;141
574642;1;2;0;656;1158;3186;-2448;-211;-420;107
574652;1;2;0;656;1139;3166;-2385;-227;-323;43
574662;1;2;0;656;1101;3166;-2371;-252;-207;-55
574672;1;2;0;656;1027;3194;-2372;-293;-86;-209
574682;1;2;0;656;955;3249;-2376;-284;-3;-399
574692;1;2;0;656;902;3330;-2361;-240;73;-565
574702;1;2;0;656;877;3411;-2323;-171;99;-648
574712;1;2;0;656;878;3465;-2250;-96;50;-621
574722;1;2;0;656;927;3466;-2186;-67;-45;-526
574732;1;2;0;656;969;3414;-2132;-63;-180;-376
574742;1;2;0;656;998;3359;-2173;-78;-292;-208
574752;1;2;0;656;1009;3299;-2240;-101;-381;-45
574762;1;2;0;656;1022;3270;-2320;-133;-439;91
574772;1;2;0;656;1024;3216;-2395;-176;-490;179
574782;1;2;0;656;1018;3207;-2473;-211;-521;209
574792;1;2;0;656;1039;3203;-2489;-235;-512;195
574802;1;2;0;656;1081;3222;-2467;-242;-483;180
574812;1;2;0;656;1126;3219;-2416;-256;-433;158
574822;1;2;0;656;1158;3192;-2388;-271;-373;135
574832;1;2;0;656;1146;3191;-2358;-285;-320;95
574842;1;2;0;656;1103;3212;-2339;-311;-269;39
574852;1;2;0;656;1050;3250;-2361;-340;-222;-40
574862;1;2;0;657;983;3261;-2383;-346;-179;-130
574872;1;2;0;657;942;3320;-2350;-311;-157;-216
574882;1;2;0;657;916;3374;-2321;-259;-156;-258
574892;1;2;0;657;919;3433;-2248;-195;-193;-224
574902;1;2;0;657;918;3448;-2181;-154;-278;-134
574912;1;2;0;657;927;3418;-2182;-139;-409;-5
574922;1;2;0;657;956;3376;-2210;-179;-536;126
574932;1;2;0;657;955;3321;-2279;-246;-624;241
574942;1;2;0;657;970;3253;-2363;-318;-669;315
574952;1;2;0;657;985;3211;-2401;-380;-689;338
574962;1;2;0;657;1009;3219;-2428;-430;-680;319
574972;1;2;0;657;1042;3260;-2403;-454;-664;280
574982;1;2;0;657;1066;3302;-2360;-464;-625;251
574992;1;2;0;657;1065;3307;-2329;-453;-600;236
575002;1;2;0;657;1061;3307;-2298;-432;-579;237
575012;1;2;0;657;1072;3288;-2260;-426;-569;241
575022;1;2;0;657;1045;3290;-2277;-427;-566;255
575032;1;2;0;657;1044;3287;-2287;-434;-579;274
575042;1;2;0;657;1056;3297;-2281;-426;-592;271
575052;1;2;0;657;1043;3285;-2299;-410;-609;250
575062;1;2;0;657;1021;3308;-2321;-392;-612;240
575072;1;2;0;657;998;3306;-2338;-358;-618;234
575082;1;2;0;657;993;3306;-2318;-345;-610;238
575092;1;2;0;657;977;3287;-2302;-337;-608;235
575102;1;2;0;657;995;3282;-2301;-340;-627;214
575112;1;2;0;657;1003;3293;-2312;-382;-635;187
575122;1;2;0;657;1008;3284;-2331;-412;-637;161
575132;1;2;0;657;1027;3281;-2338;-425;-637;137
575142;1;2;0;657;1027;3294;-2332;-415;-630;106
575152;1;2;0;657;1006;3305;-2302;-406;-617;82
575162;1;2;0;657;1000;3307;-2283;-392;-611;67
575172;1;2;0;657;1005;3312;-2274;-393;-606;70
575182;1;2;0;657;1011;3310;-2259;-394;-597;84
575192;1;2;0;657;1004;3312;-2260;-391;-599;100
575202;1;2;0;657;994;3314;-2263;-386;-609;108
575212;1;2;0;657;1009;3315;-2268;-373;-624;85
575222;1;2;0;657;1016;3310;-2282;-361;-628;50
575232;1;2;0;657;984;3322;-2294;-351;-636;18
575242;1;2;0;657;960;3323;-2267;-341;-647;-10
575252;1;2;0;657;956;3327;-2253;-340;-645;-3
575262;1;2;0;657;955;3340;-2267;-351;-643;29
575272;1;2;0;657;935;3361;-2255;-358;-656;59
575282;1;2;0;657;933;3370;-2220;-383;-690;74
575292;1;2;0;657;930;3367;-2193;-393;-749;70
575302;1;2;0;657;969;3370;-2180;-417;-807;71
575312;1;2;0;657;988;3386;-2201;-417;-841;115
575322;1;2;0;657;985;3390;-2206;-427;-913;144
575332;1;2;0;657;942;3404;-2224;-437;-970;180
575342;1;2;0;657;948;3409;-2236;-456;-1002;213
575352;1;2;0;657;960;3386;-2259;-477;-1026;233
575362;1;2;0;658;960;3339;-2274;-467;-1042;251
575372;1;2;0;658;964;3319;-2311;-464;-1063;241
575382;1;2;0;658;993;3270;-2331;-481;-1079;209
575392;1;2;0;658;991;3267;-2343;-484;-1074;171
575402;1;2;0;658;988;3273;-2384;-497;-1065;139
575412;1;2;0;658;971;3273;-2357;-525;-1056;101
575422;1;2;0;658;933;3292;-2356;-556;-1059;67
575432;1;2;0;658;907;3320;-2329;-587;-1091;41
575442;1;2;0;658;868;3369;-2300;-615;-1137;33
575452;1;2;0;658;847;3407;-2267;-645;-1190;52
575462;1;2;0;658;864;3441;-2281;-705;-1236;103
575472;1;2;0;658;875;3466;-2286;-751;-1268;178
575482;1;2;0;658;842;3425;-2316;-779;-1293;241
575492;1;2;0;658;804;3349;-2322;-773;-1318;254
575502;1;2;0;658;757;3325;-2314;-758;-1340;222
575512;1;2;0;658;715;3320;-2323;-745;-1391;169
575522;1;2;0;658;692;3339;-2315;-738;-1444;135
575532;1;2;0;658;699;3382;-2313;-730;-1478;162
575542;1;2;0;658;701;3411;-2271;-748;-1488;200
575552;1;2;0;658;683;3432;-2245;-759;-1482;258
575562;1;2;0;658;698;3440;-2248;-779;-1463;324
575572;1;2;0;658;704;3445;-2261;-824;-1460;381
575582;1;2;0;658;722;3421;-2281;-836;-1462;426
575592;1;2;0;658;733;3399;-2298;-856;-1465;457
575602;1;2;0;658;728;3375;-2293;-873;-1482;456
575612;1;2;0;658;722;3367;-2298;-865;-1524;431
575622;1;2;0;658;716;3408;-2277;-848;-1555;404
575632;1;2;0;658;694;3450;-2258;-847;-1599;408
575642;1;2;0;658;724;3481;-2216;-867;-1635;413
575652;1;2;0;658;724;3513;-2181;-880;-1639;469
575662;1;2;0;658;725;3512;-2148;-907;-1626;550
575672;1;2;0;658;734;3508;-2135;-918;-1601;639
575682;1;2;0;658;746;3507;-2144;-935;-1564;721
575692;1;2;0;658;753;3473;-2152;-925;-1547;788
575702;1;2;0;658;769;3446;-2198;-919;-1527;828
575712;1;2;0;658;791;3422;-2236;-907;-1493;863
575722;1;2;0;658;792;3412;-2256;-892;-1463;861
575732;1;2;0;658;814;3406;-2252;-874;-1419;861
575742;1;2;0;658;805;3387;-2235;-856;-1377;844
575752;1;2;0;658;784;3401;-2201;-817;-1338;807
575762;1;2;0;658;797;3432;-2173;-781;-1294;775
575772;1;2;0;658;793;3456;-2142;-746;-1241;749
575782;1;2;0;658;767;3492;-2158;-721;-1182;710
575792;1;2;0;658;761;3479;-2165;-677;-1112;682
575802;1;2;0;658;746;3487;-2181;-647;-1014;650
575812;1;2;0;658;743;3474;-2208;-622;-900;625
575822;1;2;0;658;763;3475;-2209;-602;-793;593
575832;1;2;0;658;764;3476;-2184;-564;-679;542
575842;1;2;0;658;768;3460;-2157;-524;-586;493
575852;1;2;0;658;784;3461;-2118;-464;-482;443
575862;1;2;0;659;808;3469;-2106;-427;-386;397
575872;1;2;0;659;810;3455;-2071;-399;-332;375
575882;1;2;0;659;837;3468;-2039;-400;-311;361
575892;1;2;0;659;853;3476;-2020;-392;-300;366
575902;1;2;0;659;854;3485;-2024;-380;-277;392
575912;1;2;0;659;915;3482;-2035;-363;-227;429
575922;1;2;0;659;925;3473;-2045;-312;-159;447
575932;1;2;0;659;875;3448;-2043;-237;-82;437
575942;1;2;0;659;824;3451;-2030;-154;-51;380
575952;1;2;0;659;768;3508;-2010;-122;-105;286
575962;1;2;0;659;762;3612;-2007;-151;-214;231
575972;1;2;0;659;795;3685;-2039;-203;-286;259
575982;1;2;0;659;826;3656;-2089;-252;-272;337
575992;1;2;0;659;828;3563;-2130;-237;-179;396
576002;1;2;0;659;855;3479;-2163;-194;-49;400
576012;1;2;0;659;907;3411;-2190;-109;91;363
576022;1;2;0;659;926;3385;-2158;-45;188;283
576032;1;2;0;659;985;3383;-2134;3;256;203
576042;1;2;0;659;1034;3383;-2121;12;321;169
576052;1;2;0;659;1065;3388;-2099;12;385;186
576062;1;2;0;659;1078;3396;-2072;5;427;229
576072;1;2;0;659;1073;3415;-2039;4;456;277
576082;1;2;0;659;1047;3422;-2056;15;481;312
576092;1;2;0;659;1034;3406;-2047;48;490;324
576102;1;2;0;659;1017;3386;-2032;70;476;279
576112;1;2;0;659;942;3376;-2032;95;414;204
576122;1;2;0;659;893;3417;-2033;99;296;102
576132;1;2;0;659;855;3507;-2031;69;163;41
576142;1;2;0;659;845;3582;-2056;5;29;38
576152;1;2;0;659;854;3607;-2099;-56;-34;78
576162;1;2;0;659;881;3573;-2194;-75;-7;125
576172;1;2;0;659;901;3522;-2254;-56;89;139
576182;1;2;0;659;921;3437;-2263;14;216;110
576192;1;2;0;659;955;3386;-2237;89;328;62
576202;1;2;0;659;1010;3347;-2207;123;411;5
576212;1;2;0;659;1055;3331;-2142;144;466;-42
576222;1;2;0;659;1071;3353;-2096;151;510;-60
576232;1;2;0;659;1075;3378;-2063;138;545;-29
576242;1;2;0;659;1071;3401;-2048;128;572;19
576252;1;2;0;659;1060;3413;-2028;129;579;70
576262;1;2;0;659;1009;3395;-2030;140;563;81
576272;1;2;0;659;955;3372;-2023;156;513;59
576282;1;2;0;659;871;3373;-1977;181;373;-20
576292;1;2;0;659;808;3446;-1957;168;161;-130
576302;1;2;0;659;781;3585;-1993;99;-66;-180
576312;1;2;0;659;822;3672;-2056;0;-218;-154
576322;1;2;0;659;851;3664;-2149;-68;-271;-78
576332;1;2;0;659;873;3590;-2248;-97;-226;3
576342;1;2;0;659;896;3467;-2337;-69;-113;52
576352;1;2;0;659;933;3356;-2346;1;51;38
576362;1;2;0;660;975;3297;-2332;75;208;-27
576372;1;2;0;660;1045;3253;-2308;135;343;-105
576382;1;2;0;660;1103;3268;-2274;169;463;-172
576392;1;2;0;660;1127;3272;-2202;166;547;-215
576402;1;2;0;660;1170;3299;-2151;141;621;-213
576412;1;2;0;660;1157;3325;-2134;122;677;-184
576422;1;2;0;660;1129;3322;-2084;131;685;-155
576432;1;2;0;660;1075;3332;-2026;148;641;-149
576442;1;2;0;660;984;3338;-1964;167;500;-194
576452;1;2;0;660;903;3423;-1939;162;263;-249
576462;1;2;0;660;865;3534;-1949;116;10;-264
576472;1;2;0;660;822;3646;-2004;3;-246;-223
576482;1;2;0;660;856;3665;-2058;-85;-378;-129
576492;1;2;0;660;881;3623;-2141;-157;-418;-3
576502;1;2;0;660;911;3554;-2242;-167;-362;89
576512;1;2;0;660;941;3438;-2344;-139;-251;129
576522;1;2;0;660;973;3343;-2366;-68;-124;86
576532;1;2;0;660;1017;3277;-2381;-10;8;-3
576542;1;2;0;660;1079;3253;-2353;35;128;-102
576552;1;2;0;660;1122;3255;-2317;51;211;-167
576562;1;2;0;660;1133;3275;-2237;42;296;-194
576572;1;2;0;660;1142;3294;-2165;25;374;-181
576582;1;2;0;660;1121;3346;-2156;17;406;-152
576592;1;2;0;660;1078;3382;-2081;10;399;-127
576602;1;2;0;660;1034;3388;-2028;19;326;-99
576612;1;2;0;660;992;3414;-2000;14;189;-98
576622;1;2;0;660;938;3461;-1974;-24;6;-97
576632;1;2;0;660;893;3519;-1984;-77;-203;-89
576642;1;2;0;660;889;3564;-2036;-156;-388;-47
576652;1;2;0;660;915;3572;-2110;-215;-495;35
576662;1;2;0;660;926;3538;-2193;-242;-489;109
576672;1;2;0;660;958;3491;-2296;-227;-397;168
576682;1;2;0;660;965;3400;-2372;-183;-246;194
576692;1;2;0;660;986;3303;-2384;-117;-101;157
576702;1;2;0;660;1013;3262;-2360;-60;23;80
576712;1;2;0;660;1051;3251;-2328;-28;137;3
576722;1;2;0;660;1093;3266;-2262;-8;217;-38
576732;1;2;0;660;1138;3287;-2229;-25;294;-45
576742;1;2;0;660;1174;3332;-2180;-38;366;-28
576752;1;2;0;660;1170;3343;-2161;-27;435;-2
576762;1;2;0;660;1133;3333;-2090;-10;483;15
576772;1;2;0;660;1088;3289;-2036;0;415;-22
576782;1;2;0;660;989;3345;-1964;1;224;-106
576792;1;2;0;660;890;3486;-1920;-25;-81;-154
576802;1;2;0;660;834;3660;-1926;-124;-420;-97
576812;1;2;0;660;830;3759;-1994;-288;-650;21
576822;1;2;0;660;896;3712;-2091;-405;-739;175
576832;1;2;0;660;951;3558;-2226;-445;-654;333
576842;1;2;0;660;994;3397;-2374;-380;-440;423
576852;1;2;0;660;1033;3233;-2459;-251;-185;396
576862;1;2;0;661;1105;3127;-2479;-117;41;255
576872;1;2;0;661;1138;3120;-2477;-24;210;77
576882;1;2;0;661;1168;3166;-2431;31;313;-88
576892;1;2;0;661;1188;3237;-2307;52;374;-166
576902;1;2;0;661;1212;3288;-2201;52;436;-160
576912;1;2;0;661;1187;3347;-2108;29;472;-108
576922;1;2;0;661;1161;3387;-2039;23;448;-51
576932;1;2;0;661;1093;3420;-1992;21;401;-3
576942;1;2;0;661;1059;3448;-1973;0;301;25
576952;1;2;0;661;1045;3455;-1962;-25;154;34
576962;1;2;0;661;1010;3461;-1952;-98;-25;32
576972;1;2;0;661;975;3479;-2012;-172;-216;20
576982;1;2;0;661;980;3498;-2021;-230;-365;33
576992;1;2;0;661;1011;3503;-2084;-276;-424;74
577002;1;2;0;661;1014;3459;-2171;-266;-397;126
577012;1;2;0;661;1016;3413;-2274;-221;-308;173
577022;1;2;0;661;1031;3351;-2351;-160;-180;155
577032;1;2;0;661;1022;3317;-2384;-103;-67;91
577042;1;2;0;661;1047;3308;-2368;-63;30;0
577052;1;2;0;661;1093;3317;-2328;-32;121;-83
577062;1;2;0;661;1129;3296;-2286;-8;208;-127
577072;1;2;0;661;1169;3272;-2221;6;286;-149
577082;1;2;0;661;1175;3292;-2156;-4;360;-147
577092;1;2;0;661;1192;3295;-2124;-7;403;-130
577102;1;2;0;661;1161;3324;-2093;-6;411;-112
577112;1;2;0;661;1154;3335;-2052;-15;364;-116
577122;1;2;0;661;1105;3368;-2026;-5;270;-125
577132;1;2;0;661;1056;3440;-2009;-22;141;-140
577142;1;2;0;661;1041;3511;-2018;-53;-19;-136
577152;1;2;0;661;1037;3549;-2079;-95;-135;-83
577162;1;2;0;661;1026;3513;-2148;-145;-207;-11
577172;1;2;0;661;1011;3460;-2225;-147;-215;25
577182;1;2;0;661;982;3414;-2283;-136;-185;33
577192;1;2;0;661;1006;3366;-2335;-99;-120;8
577202;1;2;0;661;1017;3317;-2351;-70;-46;-40
577212;1;2;0;661;1044;3306;-2327;-35;31;-106
577222;1;2;0;661;1093;3284;-2292;13;116;-162
577232;1;2;0;661;1135;3276;-2280;47;202;-187
577242;1;2;0;661;1136;3286;-2240;65;301;-188
577252;1;2;0;661;1158;3291;-2190;87;373;-183
577262;1;2;0;661;1181;3314;-2161;111;413;-185
577272;1;2;0;661;1190;3340;-2120;106;425;-173
577282;1;2;0;661;1208;3368;-2095;85;422;-150
577292;1;2;0;661;1227;3366;-2064;65;405;-123
577302;1;2;0;661;1229;3352;-2071;28;386;-115
577312;1;2;0;661;1192;3313;-2070;17;356;-146
577322;1;2;0;661;1096;3280;-2025;30;289;-219
577332;1;2;0;661;935;3290;-1964;52;128;-348
577342;1;2;0;661;947;3511;-2021;51;-94;-443
577352;1;2;0;661;1078;3764;-2141;-87;-136;-359
577362;1;2;0;662;1029;3707;-2238;-208;-98;-208
577372;1;2;0;662;947;3543;-2312;-192;-66;-192
577382;1;2;0;662;982;3403;-2344;-87;54;-252
577392;1;2;0;662;1038;3286;-2306;52;246;-339
577402;1;2;0;662;1092;3254;-2207;174;318;-423
577412;1;2;0;662;1125;3259;-2160;248;305;-457
577422;1;2;0;662;1154;3300;-2118;269;249;-431
577432;1;2;0;662;1181;3302;-2110;250;237;-320
577442;1;2;0;662;1196;3318;-2112;194;228;-156
577452;1;2;0;662;1191;3300;-2177;146;205;-5
577462;1;2;0;662;1192;3258;-2210;111;203;96
577472;1;2;0;662;1223;3219;-2241;110;223;116
577482;1;2;0;662;1229;3193;-2292;106;240;64
577492;1;2;0;662;1248;3201;-2318;109;256;-30
577502;1;2;0;662;1265;3247;-2319;98;288;-128
577512;1;2;0;662;1253;3296;-2289;95;342;-201
577522;1;2;0;662;1208;3304;-2247;79;402;-260
577532;1;2;0;662;1153;3303;-2250;39;460;-335
577542;1;2;0;662;1091;3290;-2291;7;510;-455
577552;1;2;0;662;1014;3301;-2302;15;574;-608
577562;1;2;0;662;968;3357;-2289;63;663;-778
577572;1;2;0;662;953;3425;-2278;144;746;-917
577582;1;2;0;662;976;3473;-2213;254;766;-978
577592;1;2;0;662;1009;3484;-2154;365;771;-960
577602;1;2;0;662;1052;3458;-2083;470;737;-881
577612;1;2;0;662;1082;3395;-2063;526;673;-752
577622;1;2;0;662;1103;3365;-2072;546;595;-598
577632;1;2;0;662;1116;3340;-2127;489;521;-426
577642;1;2;0;662;1119;3320;-2137;416;445;-283
577652;1;2;0;662;1135;3317;-2197;346;380;-173
577662;1;2;0;662;1141;3329;-2258;279;339;-110
577672;1;2;0;662;1141;3303;-2296;265;325;-66
577682;1;2;0;662;1152;3264;-2325;263;344;-88
577692;1;2;0;662;1157;3233;-2347;279;387;-182
577702;1;2;0;662;1131;3186;-2351;289;464;-318
577712;1;2;0;662;1108;3171;-2386;309;550;-496
577722;1;2;0;662;1079;3171;-2398;322;650;-695
577732;1;2;0;662;1029;3211;-2392;355;757;-897
577742;1;2;0;662;1022;3254;-2366;403;859;-1068
577752;1;2;0;662;1016;3328;-2335;470;975;-1173
577762;1;2;0;662;1005;3390;-2261;552;1082;-1200
577772;1;2;0;662;1024;3394;-2203;661;1146;-1149
577782;1;2;0;662;1045;3380;-2154;732;1155;-1086
577792;1;2;0;662;1057;3376;-2127;775;1114;-1024
577802;1;2;0;662;1094;3353;-2111;797;1044;-959
577812;1;2;0;662;1132;3336;-2159;803;944;-928
577822;1;2;0;662;1168;3314;-2209;803;847;-925
577832;1;2;0;662;1193;3277;-2224;786;782;-934
577842;1;2;0;662;1220;3248;-2264;747;741;-929
577852;1;2;0;662;1189;3191;-2322;698;684;-942
577862;1;2;0;663;1139;3143;-2386;614;632;-1003
577872;1;2;0;663;1077;3116;-2475;504;599;-1131
577882;1;2;0;663;1021;3116;-2561;469;623;-1295
577892;1;2;0;663;995;3135;-2586;507;757;-1536
577902;1;2;0;663;1034;3219;-2558;612;932;-1804
577912;1;2;0;663;1061;3324;-2443;723;1113;-1963
577922;1;2;0;663;1111;3372;-2369;806;1233;-1966
577932;1;2;0;663;1123;3399;-2285;896;1282;-1872
577942;1;2;0;663;1087;3349;-2268;938;1299;-1731
577952;1;2;0;663;1064;3324;-2239;929;1257;-1552
577962;1;2;0;663;1066;3252;-2258;889;1163;-1381
577972;1;2;0;663;1052;3203;-2252;836;1064;-1239
577982;1;2;0;663;1079;3210;-2304;775;954;-1094
577992;1;2;0;663;1096;3207;-2362;739;873;-1025
578002;1;2;0;663;1063;3238;-2380;737;800;-969
578012;1;2;0;663;1058;3243;-2385;697;712;-956
578022;1;2;0;663;1023;3256;-2391;635;602;-959
578032;1;2;0;663;950;3259;-2430;568;473;-939
578042;1;2;0;663;900;3240;-2463;505;391;-913
578052;1;2;0;663;859;3212;-2499;447;373;-890
578062;1;2;0;663;842;3194;-2558;435;423;-912
578072;1;2;0;663;849;3202;-2563;450;496;-941
578082;1;2;0;663;878;3214;-2547;521;594;-1008
578092;1;2;0;663;901;3270;-2472;602;678;-1048
578102;1;2;0;663;953;3316;-2383;698;746;-1045
578112;1;2;0;663;984;3328;-2361;734;777;-1004
578122;1;2;0;663;1000;3295;-2331;734;770;-874
578132;1;2;0;663;1018;3242;-2332;725;735;-703
578142;1;2;0;663;984;3193;-2364;671;639;-545
578152;1;2;0;663;1005;3215;-2386;599;515;-422
578162;1;2;0;663;1012;3189;-2365;499;305;-323
578172;1;2;0;663;980;3178;-2396;393;99;-289
578182;1;2;0;663;919;3189;-2434;256;-97;-304
578192;1;2;0;663;859;3242;-2573;54;-383;-342
578202;1;2;0;663;763;3240;-2641;-104;-521;-370
578212;1;2;0;663;699;3234;-2733;-212;-598;-418
578222;1;2;0;663;681;3196;-2759;-240;-531;-485
578232;1;2;0;663;708;3141;-2718;-184;-362;-588
578242;1;2;0;663;776;3101;-2654;-76;-157;-698
578252;1;2;0;663;853;3092;-2614;-1;7;-760
578262;1;2;0;663;921;3097;-2573;62;97;-728
578272;1;2;0;663;944;3117;-2557;118;158;-604
578282;1;2;0;663;942;3127;-2542;151;250;-420
578292;1;2;0;663;932;3142;-2517;165;305;-225
578302;1;2;0;663;958;3154;-2515;150;320;-50
578312;1;2;0;663;989;3129;-2506;145;236;46
578322;1;2;0;663;1010;3101;-2496;116;95;60
578332;1;2;0;663;1017;3094;-2475;100;-62;19
578342;1;2;0;663;1024;3110;-2454;59;-202;-44
578352;1;2;0;663;1012;3118;-2462;-5;-335;-103
578362;1;2;0;664;951;3109;-2480;-100;-424;-134
578372;1;2;0;664;860;3058;-2494;-184;-479;-191
578382;1;2;0;664;794;3126;-2507;-263;-514;-300
578392;1;2;0;664;824;3269;-2593;-359;-481;-419
578402;1;2;0;664;826;3323;-2685;-384;-381;-510
578412;1;2;0;664;825;3314;-2629;-314;-245;-591
578422;1;2;0;664;911;3253;-2601;-196;-59;-670
578432;1;2;0;664;1007;3139;-2581;-57;150;-738
578442;1;2;0;664;1033;3058;-2572;99;344;-809
578452;1;2;0;664;982;3050;-2555;217;491;-879
578462;1;2;0;664;937;3075;-2526;283;558;-937
578472;1;2;0;664;891;3117;-2513;284;658;-939
578482;1;2;0;664;850;3168;-2499;272;674;-943
578492;1;2;0;664;847;3183;-2483;235;667;-939
578502;1;2;0;664;878;3192;-2452;197;635;-958
578512;1;2;0;664;897;3194;-2468;136;591;-1011
578522;1;2;0;664;925;3200;-2477;73;578;-1062
578532;1;2;0;664;930;3199;-2503;14;593;-1079
578542;1;2;0;664;888;3195;-2526;-22;628;-1061
578552;1;2;0;664;876;3176;-2557;-54;649;-1021
578562;1;2;0;664;886;3162;-2579;-61;705;-984
578572;1;2;0;664;844;3158;-2587;-26;767;-958
578582;1;2;0;664;852;3159;-2603;32;855;-962
578592;1;2;0;664;857;3169;-2615;109;963;-1009
578602;1;2;0;664;847;3143;-2636;179;1061;-1065
578612;1;2;0;664;846;3115;-2658;240;1136;-1135
578622;1;2;0;664;802;3121;-2655;301;1161;-1191
578632;1;2;0;664;760;3123;-2655;306;1183;-1218
578642;1;2;0;664;743;3152;-2580;289;1186;-1206
578652;1;2;0;664;733;3198;-2567;255;1156;-1175
578662;1;2;0;664;766;3214;-2475;210;1084;-1108
578672;1;2;0;664;784;3226;-2452;182;1110;-1020
578682;1;2;0;664;823;3238;-2428;156;1078;-954
578692;1;2;0;664;840;3228;-2436;137;1033;-898
578702;1;2;0;664;833;3213;-2455;136;969;-844
578712;1;2;0;664;819;3200;-2495;134;907;-814
578722;1;2;0;664;825;3195;-2524;134;860;-801
578732;1;2;0;664;822;3185;-2578;142;822;-793
578742;1;2;0;664;824;3182;-2612;139;792;-781
578752;1;2;0;664;816;3167;-2625;113;790;-771
578762;1;2;0;664;810;3159;-2613;106;790;-797
578772;1;2;0;664;841;3148;-2598;107;801;-851
578782;1;2;0;664;853;3113;-2613;100;819;-923
578792;1;2;0;664;830;3114;-2618;98;822;-962
578802;1;2;0;664;773;3138;-2609;86;759;-936
578812;1;2;0;664;727;3145;-2581;86;712;-870
578822;1;2;0;664;721;3187;-2560;76;674;-787
578832;1;2;0;664;764;3220;-2514;60;654;-698
578842;1;2;0;664;768;3228;-2509;16;662;-598
578852;1;2;0;664;800;3235;-2488;-17;608;-513
578862;1;2;0;665;805;3254;-2479;-44;528;-430
578872;1;2;0;665;785;3266;-2476;-76;419;-361
578882;1;2;0;665;746;3249;-2472;-145;262;-288
578892;1;2;0;665;726;3267;-2466;-237;86;-215
578902;1;2;0;665;715;3249;-2475;-317;-63;-133
578912;1;2;0;665;727;3238;-2508;-368;-175;-52
578922;1;2;0;665;766;3197;-2538;-389;-230;5
578932;1;2;0;665;819;3155;-2574;-396;-248;8
578942;1;2;0;665;844;3126;-2618;-383;-260;-20
578952;1;2;0;665;809;3111;-2672;-359;-265;-23
578962;1;2;0;665;747;3106;-2662;-347;-253;-13
578972;1;2;0;665;718;3103;-2649;-325;-241;-7
578982;1;2;0;665;722;3129;-2633;-329;-199;18
578992;1;2;0;665;691;3155;-2608;-341;-154;81
579002;1;2;0;665;690;3198;-2559;-346;-136;138
579012;1;2;0;665;697;3241;-2516;-388;-121;193
579022;1;2;0;665;723;3284;-2492;-405;-153;243
579032;1;2;0;665;742;3320;-2462;-432;-228;289
579042;1;2;0;665;745;3327;-2418;-488;-319;362
579052;1;2;0;665;757;3310;-2401;-556;-449;458
579062;1;2;0;665;779;3308;-2419;-622;-625;541
579072;1;2;0;665;806;3285;-2427;-681;-770;647
579082;1;2;0;665;815;3269;-2446;-725;-878;763
579092;1;2;0;665;828;3245;-2455;-743;-975;838
579102;1;2;0;665;842;3232;-2452;-769;-1081;865
579112;1;2;0;665;851;3200;-2473;-758;-1173;858
579122;1;2;0;665;891;3171;-2501;-762;-1224;863
579132;1;2;0;665;820;3140;-2543;-747;-1295;856
579142;1;2;0;665;797;3180;-2555;-765;-1346;844
579152;1;2;0;665;802;3232;-2539;-837;-1358;880
579162;1;2;0;665;796;3258;-2522;-874;-1371;958
579172;1;2;0;665;794;3281;-2479;-910;-1386;1042
579182;1;2;0;665;798;3261;-2482;-925;-1413;1131
579192;1;2;0;665;792;3239;-2460;-954;-1453;1224
579202;1;2;0;665;790;3225;-2469;-975;-1507;1303
579212;1;2;0;665;774;3216;-2462;-1002;-1548;1368
579222;1;2;0;665;780;3216;-2450;-1010;-1581;1420
579232;1;2;0;665;804;3245;-2448;-1023;-1601;1460
579242;1;2;0;665;823;3240;-2455;-1033;-1611;1482
579252;1;2;0;665;846;3265;-2484;-1029;-1615;1496
579262;1;2;0;665;859;3272;-2502;-1039;-1599;1524
579272;1;2;0;665;832;3286;-2494;-1045;-1582;1570
579282;1;2;0;665;838;3280;-2488;-1055;-1578;1607
579292;1;2;0;665;809;3265;-2465;-1066;-1592;1633
579302;1;2;0;665;784;3261;-2425;-1074;-1627;1657
579312;1;2;0;665;804;3279;-2392;-1094;-1658;1685
579322;1;2;0;665;812;3279;-2401;-1117;-1681;1719
579332;1;2;0;665;837;3285;-2413;-1150;-1712;1757
579342;1;2;0;665;885;3296;-2422;-1199;-1730;1787
579352;1;2;0;665;870;3284;-2438;-1224;-1739;1804
579362;1;2;0;666;870;3259;-2405;-1235;-1762;1816
579372;1;2;0;666;855;3255;-2378;-1229;-1798;1797
579382;1;2;0;666;864;3261;-2377;-1192;-1786;1754
579392;1;2;0;666;912;3279;-2349;-1243;-1846;1740
579402;1;2;0;666;925;3293;-2368;-1255;-1838;1752
579412;1;2;0;666;913;3306;-2378;-1276;-1840;1796
579422;1;2;0;666;898;3342;-2396;-1287;-1849;1863
579432;1;2;0;666;885;3327;-2400;-1292;-1851;1956
579442;1;2;0;666;883;3329;-2365;-1284;-1850;2037
579452;1;2;0;666;919;3294;-2345;-1268;-1851;2090
579462;1;2;0;666;947;3278;-2328;-1256;-1859;2119
579472;1;2;0;666;937;3287;-2319;-1253;-1883;2137
579482;1;2;0;666;943;3307;-2345;-1260;-1925;2149
579492;1;2;0;666;961;3330;-2350;-1269;-1964;2168
579502;1;2;0;666;959;3332;-2351;-1302;-1989;2212
579512;1;2;0;666;969;3322;-2353;-1313;-1988;2272
579522;1;2;0;666;947;3324;-2306;-1329;-2014;2318
579532;1;2;0;666;951;3302;-2291;-1340;-2061;2347
579542;1;2;0;666;962;3312;-2239;-1341;-2116;2377
579552;1;2;0;666;998;3319;-2204;-1353;-2177;2409
579562;1;2;0;666;1018;3306;-2235;-1363;-2232;2437
579572;1;2;0;666;1084;3311;-2265;-1363;-2260;2466
579582;1;2;0;666;1119;3306;-2294;-1354;-2203;2498
579592;1;2;0;666;1098;3269;-2314;-1349;-2158;2500
579602;1;2;0;666;1108;3290;-2287;-1358;-1833;2532
579612;1;2;0;666;1104;3267;-2258;-1327;-2064;2406
579622;1;2;0;666;1112;3283;-2245;-1315;-2103;2379
579632;1;2;0;666;1124;3311;-2226;-1331;-2196;2325
579642;1;2;0;666;1168;3348;-2162;-1356;-2261;2314
579652;1;2;0;666;1187;3340;-2127;-1369;-2338;2294
579662;1;2;0;666;1215;3326;-2143;-1364;-2414;2262
579672;1;2;0;666;1261;3317;-2172;-1342;-2448;2278
579682;1;2;0;666;1254;3275;-2188;-1334;-2477;2293
579692;1;2;0;666;1237;3259;-2226;-1292;-2428;2321
579702;1;2;0;666;1252;3252;-2230;-1248;-2386;2329
579712;1;2;0;666;1234;3233;-2249;-1195;-2293;2316
579722;1;2;0;666;1233;3238;-2251;-1154;-2192;2270
579732;1;2;0;666;1245;3245;-2238;-1120;-2105;2197
579742;1;2;0;666;1231;3287;-2221;-1113;-2076;2106
579752;1;2;0;666;1238;3321;-2186;-1120;-2038;2067
579762;1;2;0;666;1272;3348;-2144;-1114;-2015;2049
579772;1;2;0;666;1302;3340;-2139;-1115;-1975;2046
579782;1;2;0;666;1339;3349;-2161;-1085;-1909;2061
579792;1;2;0;666;1377;3317;-2162;-1049;-1838;2065
579802;1;2;0;666;1394;3283;-2163;-1018;-1800;2013
579812;1;2;0;666;1405;3282;-2150;-958;-1719;1943
579822;1;2;0;666;1414;3272;-2141;-929;-1620;1859
579832;1;2;0;666;1398;3265;-2140;-905;-1514;1787
579842;1;2;0;666;1369;3265;-2182;-891;-1409;1730
579852;1;2;0;666;1349;3258;-2167;-876;-1354;1637
579862;1;2;0;667;1353;3288;-2166;-838;-1304;1555
579872;1;2;0;667;1398;3299;-2143;-798;-1236;1486
579882;1;2;0;667;1405;3292;-2110;-747;-1201;1397
579892;1;2;0;667;1430;3271;-2087;-707;-1181;1304
579902;1;2;0;667;1445;3278;-2061;-685;-1149;1244
579912;1;2;0;667;1469;3286;-2055;-683;-1113;1232
579922;1;2;0;667;1477;3319;-2063;-684;-1093;1224
579932;1;2;0;667;1477;3352;-2072;-707;-1100;1266
579942;1;2;0;667;1502;3355;-2062;-695;-1070;1315
579952;1;2;0;667;1512;3359;-2080;-659;-987;1318
579962;1;2;0;667;1555;3343;-2090;-651;-910;1294
579972;1;2;0;667;1536;3312;-2104;-669;-862;1280
579982;1;2;0;667;1468;3318;-2100;-686;-911;1262
579992;1;2;0;667;1456;3299;-2069;-708;-970;1232
580002;1;2;0;667;1490;3260;-2054;-717;-1016;1183
580012;1;2;0;667;1498;3237;-2059;-699;-1035;1151
580022;1;2;0;667;1502;3217;-2106;-687;-1071;1079
580032;1;2;0;667;1519;3168;-2148;-651;-1064;1017
580042;1;2;0;667;1548;3192;-2174;-610;-991;954
580052;1;2;0;667;1531;3198;-2195;-595;-917;897
580062;1;2;0;667;1522;3231;-2200;-572;-856;856
580072;1;2;0;667;1474;3302;-2209;-554;-818;823
580082;1;2;0;667;1441;3354;-2158;-552;-789;846
580092;1;2;0;667;1428;3383;-2097;-519;-798;905
580102;1;2;0;667;1448;3363;-2051;-519;-819;931
580112;1;2;0;667;1484;3332;-2008;-514;-833;951
580122;1;2;0;667;1502;3302;-2007;-495;-842;971
580132;1;2;0;667;1520;3259;-2014;-494;-884;925
580142;1;2;0;667;1520;3245;-2025;-503;-895;879
580152;1;2;0;667;1520;3234;-2068;-498;-873;866
580162;1;2;0;667;1516;3269;-2104;-516;-826;870
580172;1;2;0;667;1513;3248;-2152;-530;-768;890
580182;1;2;0;667;1491;3215;-2102;-525;-723;878
580192;1;2;0;667;1508;3240;-2110;-529;-730;814
580202;1;2;0;667;1522;3239;-2106;-517;-760;742
580212;1;2;0;667;1557;3206;-2115;-494;-763;672
580222;1;2;0;667;1599;3206;-2124;-467;-734;598
580232;1;2;0;667;1603;3183;-2162;-426;-684;526
580242;1;2;0;667;1609;3161;-2183;-389;-634;404
580252;1;2;0;667;1615;3145;-2192;-354;-537;282
580262;1;2;0;667;1597;3161;-2196;-312;-434;159
580272;1;2;0;667;1580;3193;-2165;-275;-332;41
580282;1;2;0;667;1565;3243;-2104;-232;-251;-29
580292;1;2;0;667;1577;3286;-2079;-182;-232;-100
580302;1;2;0;667;1591;3305;-2015;-155;-210;-115
580312;1;2;0;667;1633;3295;-1990;-115;-191;-126
580322;1;2;0;667;1673;3280;-1986;-73;-154;-140
580332;1;2;0;667;1678;3259;-2015;-35;-127;-195
580342;1;2;0;667;1700;3253;-2034;-3;-96;-270
580352;1;2;0;667;1679;3255;-2073;50;-16;-327
580363;1;2;0;668;1655;3224;-2080;87;79;-388
580373;1;2;0;668;1634;3221;-2080;125;173;-470
580383;1;2;0;668;1619;3222;-2060;172;260;-555
580393;1;2;0;668;1594;3246;-2052;214;333;-650
580403;1;2;0;668;1598;3262;-2054;246;396;-734
580413;1;2;0;668;1583;3281;-2053;302;463;-804
580423;1;2;0;668;1570;3279;-2078;373;549;-863
580433;1;2;0;668;1543;3283;-2076;429;620;-919
580443;1;2;0;668;1510;3282;-2036;472;650;-982
580453;1;2;0;668;1502;3290;-2020;492;664;-1030
580463;1;2;0;668;1502;3333;-2033;487;674;-1056
580473;1;2;0;668;1514;3324;-2054;495;659;-1069
580483;1;2;0;668;1516;3321;-2086;500;648;-1084
580493;1;2;0;668;1507;3315;-2128;526;681;-1089
580503;1;2;0;668;1511;3289;-2128;587;740;-1084
580513;1;2;0;668;1522;3255;-2165;636;809;-1102
580523;1;2;0;668;1520;3222;-2176;660;867;-1151
580533;1;2;0;668;1516;3236;-2174;685;888;-1200
580543;1;2;0;668;1506;3249;-2154;684;919;-1250
580553;1;2;0;668;1496;3242;-2172;666;930;-1297
580563;1;2;0;668;1442;3244;-2172;679;936;-1329
580573;1;2;0;668;1412;3254;-2162;685;943;-1357
580583;1;2;0;668;1384;3273;-2174;700;926;-1392
580593;1;2;0;668;1382;3308;-2159;704;903;-1402
580603;1;2;0;668;1402;3332;-2156;683;882;-1370
580613;1;2;0;668;1397;3321;-2140;660;873;-1310
580623;1;2;0;668;1398;3295;-2133;617;873;-1246
580633;1;2;0;668;1408;3296;-2169;586;893;-1181
580643;1;2;0;668;1438;3274;-2186;547;914;-1110
580653;1;2;0;668;1450;3254;-2202;528;925;-1074
580663;1;2;0;668;1452;3243;-2242;502;936;-1063
580673;1;2;0;668;1414;3221;-2260;505;953;-1095
580683;1;2;0;668;1384;3204;-2304;525;981;-1149
580693;1;2;0;668;1366;3186;-2324;555;1045;-1212
580703;1;2;0;668;1348;3175;-2344;584;1112;-1277
580713;1;2;0;668;1333;3162;-2319;597;1192;-1327
580723;1;2;0;668;1324;3192;-2276;600;1234;-1376
580733;1;2;0;668;1335;3253;-2237;603;1251;-1431
580743;1;2;0;668;1344;3298;-2197;592;1279;-1424
580753;1;2;0;668;1337;3296;-2192;602;1274;-1381
580763;1;2;0;668;1349;3278;-2184;602;1270;-1358
580773;1;2;0;668;1334;3278;-2206;598;1258;-1342
580783;1;2;0;668;1334;3286;-2186;613;1247;-1329
580793;1;2;0;668;1331;3296;-2189;623;1249;-1304
580803;1;2;0;668;1311;3317;-2196;626;1230;-1289
580813;1;2;0;668;1316;3299;-2205;631;1203;-1290
580823;1;2;0;668;1292;3291;-2234;627;1181;-1293
580833;1;2;0;668;1292;3261;-2233;626;1170;-1321
580843;1;2;0;668;1298;3231;-2248;616;1169;-1366
580853;1;2;0;668;1285;3218;-2272;623;1184;-1420
580862;1;2;0;669;1281;3226;-2270;602;1213;-1470
580872;1;2;0;669;1291;3250;-2227;594;1219;-1488
580882;1;2;0;669;1287;3257;-2225;588;1224;-1499
580892;1;2;0;669;1272;3263;-2199;607;1204;-1524
580902;1;2;0;669;1286;3303;-2170;616;1158;-1573
580912;1;2;0;669;1309;3323;-2141;620;1123;-1607
580922;1;2;0;669;1328;3325;-2154;620;1091;-1636
580932;1;2;0;669;1352;3332;-2212;624;1101;-1631
580942;1;2;0;669;1332;3293;-2269;603;1147;-1607
580952;1;2;0;669;1313;3275;-2330;564;1198;-1584
580962;1;2;0;669;1313;3250;-2380;527;1269;-1555
580972;1;2;0;669;1288;3221;-2416;483;1357;-1532
580982;1;2;0;669;1243;3198;-2415;461;1426;-1537
580992;1;2;0;669;1208;3186;-2386;423;1476;-1569
581002;1;2;0;669;1180;3190;-2350;404;1478;-1626
581012;1;2;0;669;1178;3219;-2313;397;1477;-1661
581022;1;2;0;669;1210;3243;-2264;390;1446;-1680
581032;1;2;0;669;1207;3245;-2254;398;1408;-1682
581042;1;2;0;669;1227;3240;-2257;414;1394;-1666
581052;1;2;0;669;1245;3243;-2260;453;1396;-1646
581062;1;2;0;669;1226;3262;-2275;482;1419;-1659
581072;1;2;0;669;1136;3243;-2263;503;1468;-1719
581082;1;2;0;669;1179;3267;-2227;483;1595;-1813
581092;1;2;0;669;1200;3285;-2243;500;1660;-1854
581102;1;2;0;669;1192;3268;-2231;540;1626;-1829
581112;1;2;0;669;1202;3284;-2242;562;1538;-1806
581122;1;2;0;669;1219;3269;-2303;537;1455;-1793
581132;1;2;0;669;1244;3258;-2352;527;1430;-1758
581142;1;2;0;669;1260;3250;-2358;529;1418;-1709
581152;1;2;0;669;1228;3239;-2367;532;1430;-1661
581162;1;2;0;669;1217;3228;-2377;548;1447;-1605
581172;1;2;0;669;1203;3218;-2354;535;1480;-1552
581182;1;2;0;669;1217;3224;-2342;532;1512;-1505
581192;1;2;0;669;1202;3227;-2362;535;1535;-1471
581202;1;2;0;669;1207;3218;-2347;543;1571;-1479
581212;1;2;0;669;1201;3217;-2358;549;1625;-1523
581222;1;2;0;669;1199;3247;-2371;580;1683;-1553
581232;1;2;0;669;1191;3257;-2372;617;1725;-1540
581242;1;2;0;669;1159;3268;-2343;638;1698;-1523
581252;1;2;0;669;1135;3302;-2292;622;1604;-1498
581262;1;2;0;669;1172;3312;-2243;604;1511;-1473
581272;1;2;0;669;1181;3302;-2242;574;1450;-1430
581282;1;2;0;669;1205;3292;-2243;566;1413;-1374
581292;1;2;0;669;1208;3255;-2293;566;1377;-1311
581302;1;2;0;669;1166;3240;-2299;562;1337;-1261
581312;1;2;0;669;1117;3251;-2324;567;1295;-1238
581322;1;2;0;669;1086;3238;-2338;571;1274;-1220
581332;1;2;0;669;1102;3242;-2309;589;1255;-1205
581342;1;2;0;669;1119;3228;-2312;588;1229;-1220
581352;1;2;0;669;1162;3217;-2294;579;1215;-1254
581362;1;2;0;670;1183;3216;-2323;578;1201;-1281
581372;1;2;0;670;1182;3235;-2378;574;1203;-1283
581382;1;2;0;670;1188;3219;-2421;593;1228;-1264
581392;1;2;0;670;1134;3233;-2421;612;1250;-1243
581402;1;2;0;670;1090;3227;-2403;620;1263;-1248
581412;1;2;0;670;1068;3220;-2360;629;1255;-1267
581422;1;2;0;670;1086;3210;-2331;657;1255;-1289
581432;1;2;0;670;1095;3210;-2321;676;1235;-1325
581442;1;2;0;670;1134;3196;-2292;658;1155;-1388
581452;1;2;0;670;1139;3226;-2314;641;1140;-1452
581462;1;2;0;670;1151;3257;-2359;604;1085;-1525
581472;1;2;0;670;1146;3291;-2377;562;1054;-1527
581482;1;2;0;670;1096;3293;-2370;521;1026;-1457
581492;1;2;0;670;1030;3273;-2397;502;969;-1376
581502;1;2;0;670;1007;3261;-2355;511;810;-1316
581512;1;2;0;670;1037;3239;-2342;495;705;-1320
581522;1;2;0;670;998;3230;-2334;503;677;-1326
581532;1;2;0;670;1040;3233;-2339;511;617;-1321
581542;1;2;0;670;1028;3230;-2366;520;513;-1348
581552;1;2;0;670;1044;3238;-2399;538;494;-1390
581562;1;2;0;670;1007;3262;-2398;539;474;-1405
581572;1;2;0;670;1005;3259;-2417;519;450;-1403
581582;1;2;0;670;959;3266;-2395;516;413;-1353
581592;1;2;0;670;981;3268;-2438;457;422;-1261
581602;1;2;0;670;986;3250;-2415;422;493;-1178
581612;1;2;0;670;1012;3223;-2436;396;545;-1110
581622;1;2;0;670;1004;3235;-2431;383;660;-1062
581632;1;2;0;670;999;3225;-2445;369;672;-1039
581642;1;2;0;670;991;3236;-2470;353;657;-1003
581652;1;2;0;670;968;3250;-2453;360;654;-981
581662;1;2;0;670;953;3248;-2451;355;636;-1015
581672;1;2;0;670;966;3226;-2449;328;630;-1043
581682;1;2;0;670;944;3216;-2441;319;586;-1023
581692;1;2;0;670;910;3222;-2429;302;507;-996
581702;1;2;0;670;895;3243;-2431;305;363;-950
581712;1;2;0;670;911;3240;-2431;295;309;-886
581722;1;2;0;670;894;3246;-2436;275;279;-823
581732;1;2;0;670;917;3237;-2437;267;240;-763
581742;1;2;0;670;934;3221;-2442;257;205;-715
581752;1;2;0;670;957;3201;-2481;260;178;-675
581762;1;2;0;670;974;3169;-2498;266;126;-670
581772;1;2;0;670;1005;3141;-2550;289;109;-666
581782;1;2;0;670;984;3128;-2556;317;117;-676
581792;1;2;0;670;932;3112;-2512;313;82;-677
581802;1;2;0;670;937;3154;-2523;284;23;-696
581812;1;2;0;670;943;3154;-2543;241;69;-694
581822;1;2;0;670;959;3149;-2528;218;137;-660
581832;1;2;0;670;962;3146;-2489;220;164;-642
581842;1;2;0;670;943;3167;-2497;222;182;-617
581852;1;2;0;670;942;3164;-2498;222;144;-592
581862;1;2;0;671;932;3174;-2523;251;84;-581
581872;1;2;0;671;914;3166;-2560;267;46;-584
581882;1;2;0;671;891;3171;-2561;256;51;-573
581892;1;2;0;671;873;3163;-2559;222;66;-558
581902;1;2;0;671;862;3178;-2540;190;95;-557
581912;1;2;0;671;885;3173;-2495;148;121;-541
581922;1;2;0;671;897;3154;-2515;112;203;-546
581932;1;2;0;671;922;3156;-2487;83;244;-601
581942;1;2;0;671;920;3158;-2523;77;265;-688
581952;1;2;0;671;909;3181;-2546;66;281;-760
581962;1;2;0;671;892;3223;-2537;75;283;-810
581972;1;2;0;671;858;3244;-2530;82;243;-829
581982;1;2;0;671;860;3245;-2501;104;198;-797
581992;1;2;0;671;841;3211;-2497;107;183;-715
582002;1;2;0;671;833;3177;-2512;99;172;-667
582012;1;2;0;671;850;3161;-2521;95;180;-666
582022;1;2;0;671;837;3156;-2554;96;180;-695
582032;1;2;0;671;787;3157;-2571;79;181;-719
582042;1;2;0;671;751;3177;-2587;51;157;-719
582052;1;2;0;671;745;3176;-2566;40;149;-684
582062;1;2;0;671;763;3163;-2550;29;138;-631
582072;1;2;0;671;791;3168;-2537;40;130;-565
582082;1;2;0;671;814;3168;-2531;57;108;-510
582092;1;2;0;671;830;3194;-2515;64;88;-472
582102;1;2;0;671;857;3183;-2558;56;65;-426
582112;1;2;0;671;824;3158;-2554;62;42;-391
582122;1;2;0;671;825;3145;-2576;70;52;-388
582132;1;2;0;671;804;3118;-2582;83;34;-397
582142;1;2;0;671;800;3111;-2577;88;-21;-433
582152;1;2;0;671;793;3125;-2594;87;-49;-450
582162;1;2;0;671;814;3138;-2589;89;-81;-464
582172;1;2;0;671;849;3155;-2571;75;-92;-480
582182;1;2;0;671;849;3175;-2558;50;-85;-465
582192;1;2;0;671;857;3180;-2587;12;-78;-438
582202;1;2;0;671;823;3172;-2604;-21;-70;-396
582212;1;2;0;671;791;3177;-2620;-58;-50;-354
582222;1;2;0;671;780;3156;-2631;-79;-39;-324
582232;1;2;0;671;778;3124;-2620;-96;-62;-337
582242;1;2;0;671;772;3126;-2606;-108;-86;-370
582252;1;2;0;671;753;3135;-2609;-120;-106;-381
582262;1;2;0;671;724;3147;-2596;-132;-152;-379
582272;1;2;0;671;716;3162;-2583;-145;-175;-373
582282;1;2;0;671;720;3159;-2585;-144;-184;-361
582292;1;2;0;671;736;3183;-2569;-139;-177;-350
582302;1;2;0;671;755;3162;-2583;-133;-151;-348
582312;1;2;0;671;766;3158;-2594;-109;-123;-343
582322;1;2;0;671;764;3164;-2609;-96;-94;-350
582332;1;2;0;671;755;3169;-2607;-99;-81;-373
582342;1;2;0;671;742;3177;-2567;-107;-84;-387
582352;1;2;0;671;741;3189;-2546;-106;-94;-398
582362;1;2;0;672;741;3193;-2540;-133;-112;-388
582372;1;2;0;672;727;3211;-2536;-149;-109;-343
582382;1;2;0;672;733;3210;-2560;-171;-95;-300
582392;1;2;0;672;738;3213;-2551;-185;-85;-266
582402;1;2;0;672;734;3198;-2583;-197;-79;-248
582412;1;2;0;672;723;3181;-2602;-195;-76;-222
582422;1;2;0;672;702;3160;-2597;-185;-106;-227
582432;1;2;0;672;703;3156;-2557;-185;-120;-239
582442;1;2;0;672;709;3148;-2562;-184;-148;-245
582452;1;2;0;672;722;3121;-2567;-189;-159;-250
582462;1;2;0;672;733;3140;-2581;-194;-155;-241
582472;1;2;0;672;737;3160;-2582;-184;-128;-216
582482;1;2;0;672;743;3167;-2581;-181;-103;-184
582492;1;2;0;672;774;3163;-2539;-164;-101;-168
582502;1;2;0;672;803;3172;-2520;-150;-126;-188
582512;1;2;0;672;821;3190;-2519;-131;-172;-225
582522;1;2;0;672;775;3195;-2557;-146;-207;-227
582532;1;2;0;672;716;3212;-2586;-150;-230;-188
582542;1;2;0;672;679;3224;-2574;-141;-253;-144
582552;1;2;0;672;679;3209;-2584;-135;-188;-87
582562;1;2;0;672;668;3194;-2597;-137;-145;-85
582572;1;2;0;672;678;3170;-2596;-149;-108;-110
582582;1;2;0;672;708;3145;-2592;-172;-106;-154
582592;1;2;0;672;690;3131;-2586;-224;-131;-176
582602;1;2;0;672;686;3123;-2610;-264;-164;-182
582612;1;2;0;672;693;3125;-2622;-290;-183;-165
582622;1;2;0;672;689;3152;-2609;-288;-202;-141
582632;1;2;0;672;700;3181;-2596;-278;-221;-130
582642;1;2;0;672;721;3206;-2560;-270;-250;-105
582652;1;2;0;672;710;3196;-2548;-263;-277;-91
582662;1;2;0;672;737;3188;-2545;-257;-283;-83
582672;1;2;0;672;727;3199;-2572;-259;-270;-58
582682;1;2;0;672;721;3184;-2579;-266;-271;-20
582692;1;2;0;672;717;3178;-2585;-272;-240;27
582702;1;2;0;672;730;3166;-2578;-278;-243;31
582712;1;2;0;672;712;3174;-2564;-280;-266;24
582722;1;2;0;672;706;3183;-2573;-293;-281;31
582732;1;2;0;672;716;3186;-2592;-306;-286;40
582742;1;2;0;672;711;3171;-2590;-306;-274;59
582752;1;2;0;672;694;3201;-2588;-299;-248;83
582762;1;2;0;672;690;3196;-2594;-297;-215;85
582772;1;2;0;672;679;3205;-2556;-279;-191;94
582782;1;2;0;672;674;3189;-2513;-270;-174;96
582792;1;2;0;672;695;3185;-2512;-267;-186;73
582802;1;2;0;672;706;3178;-2495;-266;-199;41
582812;1;2;0;672;710;3182;-2510;-264;-217;35
582822;1;2;0;672;713;3206;-2527;-268;-202;46
582832;1;2;0;672;717;3198;-2537;-267;-185;51
582842;1;2;0;672;721;3221;-2557;-254;-169;60
582852;1;2;0;672;736;3243;-2537;-233;-160;77
582862;1;2;0;673;758;3227;-2530;-212;-161;94
582872;1;2;0;673;759;3198;-2544;-211;-153;88
582882;1;2;0;673;771;3188;-2572;-215;-137;68
582892;1;2;0;673;740;3181;-2563;-216;-122;58
582902;1;2;0;673;722;3174;-2562;-211;-103;40
582912;1;2;0;673;714;3180;-2549;-221;-94;27
582922;1;2;0;673;709;3195;-2519;-227;-103;18
582932;1;2;0;673;705;3193;-2513;-230;-113;25
582942;1;2;0;673;717;3180;-2504;-228;-122;33
582952;1;2;0;673;733;3188;-2504;-215;-124;33
582962;1;2;0;673;750;3198;-2518;-190;-118;44
582972;1;2;0;673;751;3199;-2515;-192;-117;43
582982;1;2;0;673;737;3195;-2519;-186;-119;39
582992;1;2;0;673;723;3191;-2513;-178;-129;44
583002;1;2;0;673;746;3198;-2534;-166;-138;39
583012;1;2;0;673;757;3194;-2530;-182;-141;35
583022;1;2;0;673;753;3200;-2525;-178;-138;28
583032;1;2;0;673;748;3212;-2507;-184;-126;25
583042;1;2;0;673;727;3202;-2504;-182;-115;26
583052;1;2;0;673;716;3195;-2512;-186;-114;22
583062;1;2;0;673;744;3201;-2539;-191;-128;14
583072;1;2;0;673;752;3206;-2522;-200;-137;6
583082;1;2;0;673;748;3189;-2514;-191;-163;-7
583092;1;2;0;673;739;3196;-2524;-205;-195;-13
583102;1;2;0;673;726;3218;-2532;-202;-218;-4
583112;1;2;0;673;689;3214;-2524;-194;-220;37
583122;1;2;0;673;725;3206;-2530;-191;-199;63
583132;1;2;0;673;746;3176;-2521;-180;-180;79
583142;1;2;0;673;748;3183;-2531;-169;-179;67
583152;1;2;0;673;772;3171;-2556;-154;-157;49
583162;1;2;0;673;753;3188;-2566;-159;-120;38
583172;1;2;0;673;750;3158;-2576;-156;-92;20
583182;1;2;0;673;753;3175;-2581;-153;-75;-4
583192;1;2;0;673;721;3193;-2568;-154;-66;-9
583202;1;2;0;673;724;3202;-2541;-165;-52;-7
583212;1;2;0;673;755;3213;-2516;-165;-54;5
583222;1;2;0;673;760;3211;-2503;-178;-65;30
583232;1;2;0;673;762;3202;-2506;-184;-76;48
583242;1;2;0;673;767;3204;-2524;-185;-80;62
583252;1;2;0;673;769;3186;-2534;-165;-82;59
583262;1;2;0;673;761;3181;-2544;-140;-76;55
583272;1;2;0;673;762;3169;-2558;-134;-62;31
583282;1;2;0;673;768;3171;-2567;-127;-50;-3
583292;1;2;0;673;753;3174;-2530;-122;-51;-19
583302;1;2;0;673;761;3187;-2529;-132;-51;-25
583312;1;2;0;673;770;3189;-2524;-134;-54;-14
583322;1;2;0;673;755;3220;-2527;-138;-53;9
583332;1;2;0;673;765;3204;-2517;-136;-64;23
583342;1;2;0;673;767;3204;-2515;-142;-77;21
583352;1;2;0;673;762;3199;-2535;-138;-95;22
