timestamp;subject_id;activity;label;seq;ax;ay;az;gx;gy;gz
116923;1;3;0;127;3936;215;-1725;-146;18;-133
116933;1;3;0;127;3942;227;-1706;-158;-15;-121
116943;1;3;0;127;3919;223;-1726;-164;-14;-134
116953;1;3;0;127;3902;228;-1737;-161;-35;-131
116963;1;3;0;127;3914;235;-1725;-157;-45;-119
116973;1;3;0;127;3909;237;-1719;-157;-51;-102
116983;1;3;0;127;3926;237;-1721;-147;-57;-94
116993;1;3;0;127;3914;230;-1735;-155;-33;-101
117003;1;3;0;127;3906;216;-1741;-165;-16;-118
117013;1;3;0;127;3918;213;-1714;-169;-18;-126
117023;1;3;0;127;3935;238;-1729;-159;-20;-110
117033;1;3;0;127;3924;223;-1720;-162;-34;-89
117043;1;3;0;127;3902;241;-1698;-174;-58;-93
117053;1;3;0;127;3927;226;-1727;-153;-62;-74
117063;1;3;0;127;3939;230;-1714;-143;-82;-56
117073;1;3;0;127;3949;227;-1734;-130;-65;-64
117083;1;3;0;127;3912;227;-1715;-134;-81;-63
117093;1;3;0;127;3900;203;-1705;-156;-68;-83
117103;1;3;0;127;3909;221;-1737;-160;-64;-65
117113;1;3;0;127;3927;240;-1725;-158;-75;-56
117123;1;3;0;127;3927;238;-1732;-162;-73;-73
117133;1;3;0;127;3936;246;-1731;-155;-78;-65
117143;1;3;0;127;3924;211;-1725;-149;-108;-70
117153;1;3;0;127;3928;225;-1722;-156;-141;-87
117163;1;3;0;127;3934;221;-1736;-156;-151;-101
117173;1;3;0;127;3946;229;-1735;-151;-172;-106
117183;1;3;0;127;3942;201;-1745;-141;-190;-109
117193;1;3;0;127;3930;227;-1737;-127;-196;-101
117203;1;3;0;127;3894;240;-1728;-104;-199;-75
117213;1;3;0;127;3938;225;-1727;-127;-204;-72
117223;1;3;0;127;3919;224;-1723;-133;-203;-98
117233;1;3;0;127;3917;213;-1727;-128;-220;-91
117243;1;3;0;127;3914;238;-1740;-136;-228;-88
117253;1;3;0;127;3899;241;-1733;-129;-267;-45
117263;1;3;0;127;3894;235;-1728;-108;-329;-1
117273;1;3;0;127;3911;235;-1715;-81;-296;9
117283;1;3;0;127;3901;243;-1725;-109;-343;25
117293;1;3;0;127;3919;228;-1735;-105;-360;18
117303;1;3;0;127;3912;232;-1718;-107;-361;23
117313;1;3;0;127;3907;218;-1749;-124;-350;16
117323;1;3;0;127;3918;215;-1741;-119;-333;-12
117333;1;3;0;127;3903;226;-1753;-116;-305;-21
117343;1;3;0;127;3908;219;-1747;-105;-296;1
117353;1;3;0;127;3911;228;-1759;-115;-306;20
117363;1;3;0;127;3922;224;-1746;-127;-293;10
117373;1;3;0;127;3919;211;-1775;-127;-370;75
117383;1;3;0;127;3904;219;-1783;-120;-316;29
117393;1;3;0;127;3884;200;-1777;-125;-306;29
117403;1;3;0;127;3856;186;-1756;-120;-345;43
117413;1;3;0;127;3886;207;-1764;-108;-304;39
117422;1;3;0;128;3923;205;-1783;-104;-300;39
117432;1;3;0;128;3908;216;-1766;-101;-388;84
117442;1;3;0;128;3918;209;-1780;-101;-336;49
117452;1;3;0;128;3921;200;-1825;-129;-288;24
117462;1;3;0;128;3887;192;-1811;-128;-257;26
117472;1;3;0;128;3859;196;-1797;-101;-319;79
117482;1;3;0;128;3875;193;-1752;-97;-374;81
117492;1;3;0;128;3875;194;-1793;-66;-429;180
117502;1;3;0;128;3864;213;-1748;-57;-403;137
117512;1;3;0;128;3901;219;-1787;-46;-363;61
117522;1;3;0;128;3905;223;-1788;-34;-379;43
117532;1;3;0;128;3892;195;-1814;-48;-464;119
117542;1;3;0;128;3869;189;-1813;-46;-433;99
117552;1;3;0;128;3905;186;-1816;-48;-469;130
117562;1;3;0;128;3891;177;-1800;-55;-429;109
117572;1;3;0;128;3851;190;-1805;-63;-341;47
117582;1;3;0;128;3877;188;-1811;-47;-313;77
117592;1;3;0;128;3856;167;-1785;-32;-311;68
117602;1;3;0;128;3861;181;-1780;-33;-290;36
117612;1;3;0;128;3878;206;-1800;-31;-284;14
117622;1;3;0;128;3879;201;-1831;-53;-278;24
117632;1;3;0;128;3864;209;-1849;-67;-284;25
117642;1;3;0;128;3846;174;-1842;-73;-349;36
117652;1;3;0;128;3897;180;-1878;-76;-384;77
117662;1;3;0;128;3870;167;-1887;-43;-562;248
117672;1;3;0;128;3872;149;-1840;-59;-408;125
117682;1;3;0;128;3858;165;-1834;-61;-321;77
117692;1;3;0;128;3835;170;-1818;-68;-303;81
117702;1;3;0;128;3862;163;-1834;-71;-256;77
117712;1;3;0;128;3849;172;-1832;-68;-219;60
117722;1;3;0;128;3856;167;-1826;-85;-202;62
117732;1;3;0;128;3871;155;-1838;-84;-204;52
117742;1;3;0;128;3878;171;-1839;-86;-234;65
117752;1;3;0;128;3876;141;-1836;-70;-283;91
117762;1;3;0;128;3910;162;-1850;-63;-292;91
117772;1;3;0;128;3843;171;-1826;-85;-288;82
117782;1;3;0;128;3866;149;-1866;-102;-283;85
117792;1;3;0;128;3858;143;-1863;-91;-248;39
117802;1;3;0;128;3848;142;-1853;-98;-220;32
117812;1;3;0;128;3854;146;-1841;-92;-226;31
117822;1;3;0;128;3879;157;-1852;-77;-226;28
117832;1;3;0;128;3869;157;-1880;-72;-219;27
117842;1;3;0;128;3859;149;-1880;-67;-204;34
117852;1;3;0;128;3875;143;-1882;-73;-183;27
117862;1;3;0;128;3848;123;-1883;-95;-181;51
117872;1;3;0;128;3855;116;-1877;-110;-191;24
117882;1;3;0;128;3849;126;-1875;-111;-195;-3
117892;1;3;0;128;3843;143;-1848;-102;-196;2
117902;1;3;0;128;3841;170;-1838;-82;-202;41
117912;1;3;0;128;3854;168;-1844;-67;-201;71
117923;1;3;0;129;3859;129;-1853;-77;-192;71
117933;1;3;0;129;3839;87;-1837;-73;-237;37
117943;1;3;0;129;3863;121;-1902;-68;-233;17
117953;1;3;0;129;3859;130;-1879;-87;-202;23
117963;1;3;0;129;3862;146;-1883;-88;-190;48
117973;1;3;0;129;3841;129;-1856;-89;-184;53
117983;1;3;0;129;3851;130;-1849;-98;-182;49
117993;1;3;0;129;3844;122;-1849;-87;-201;49
118003;1;3;0;129;3824;101;-1866;-101;-219;50
118013;1;3;0;129;3831;111;-1882;-97;-225;47
118023;1;3;0;129;3841;105;-1904;-102;-222;52
118033;1;3;0;129;3835;112;-1881;-94;-201;19
118043;1;3;0;129;3845;124;-1875;-105;-174;18
118053;1;3;0;129;3859;118;-1885;-101;-166;8
118063;1;3;0;129;3864;108;-1877;-117;-157;5
118073;1;3;0;129;3860;115;-1878;-118;-154;-12
118083;1;3;0;129;3830;112;-1887;-134;-146;-19
118093;1;3;0;129;3825;101;-1896;-136;-142;-27
118103;1;3;0;129;3825;115;-1881;-141;-138;-22
118113;1;3;0;129;3832;120;-1884;-133;-134;-22
118123;1;3;0;129;3832;123;-1882;-130;-113;-28
118133;1;3;0;129;3859;121;-1873;-136;-113;-34
118143;1;3;0;129;3863;128;-1892;-140;-103;-40
118153;1;3;0;129;3858;106;-1882;-139;-95;-53
118163;1;3;0;129;3861;104;-1873;-141;-88;-62
118173;1;3;0;129;3846;98;-1908;-151;-84;-64
118183;1;3;0;129;3840;111;-1888;-160;-83;-68
118193;1;3;0;129;3839;116;-1883;-155;-88;-67
118203;1;3;0;129;3827;106;-1866;-140;-82;-62
118213;1;3;0;129;3825;122;-1878;-130;-91;-51
118223;1;3;0;129;3847;115;-1858;-133;-108;-36
118233;1;3;0;129;3851;111;-1882;-136;-106;-40
118243;1;3;0;129;3858;109;-1909;-139;-99;-65
118253;1;3;0;129;3877;92;-1910;-152;-99;-69
118263;1;3;0;129;3866;95;-1921;-159;-86;-69
118273;1;3;0;129;3857;97;-1878;-150;-83;-65
118283;1;3;0;129;3835;116;-1877;-146;-89;-65
118293;1;3;0;129;3832;113;-1866;-145;-97;-66
118303;1;3;0;129;3839;122;-1851;-143;-108;-71
118313;1;3;0;129;3829;113;-1884;-142;-116;-82
118323;1;3;0;129;3833;119;-1897;-148;-103;-76
118333;1;3;0;129;3847;119;-1886;-146;-82;-61
118343;1;3;0;129;3862;113;-1901;-143;-85;-46
118353;1;3;0;129;3837;105;-1877;-144;-87;-51
118363;1;3;0;129;3833;102;-1893;-141;-89;-64
118373;1;3;0;129;3848;99;-1894;-151;-103;-52
118383;1;3;0;129;3827;81;-1908;-156;-114;-54
118393;1;3;0;129;3840;108;-1894;-162;-85;-83
118403;1;3;0;129;3852;114;-1876;-144;-60;-83
118413;1;3;0;129;3842;118;-1884;-152;-57;-73
118423;1;3;0;130;3842;114;-1898;-162;-56;-75
118433;1;3;0;130;3848;92;-1904;-159;-65;-78
118443;1;3;0;130;3870;102;-1920;-156;-81;-91
118453;1;3;0;130;3861;114;-1923;-142;-90;-89
118463;1;3;0;130;3840;114;-1898;-130;-91;-77
118473;1;3;0;130;3816;119;-1872;-136;-79;-58
118483;1;3;0;130;3835;118;-1856;-137;-59;-54
118493;1;3;0;130;3849;109;-1850;-148;-49;-52
118503;1;3;0;130;3865;93;-1849;-141;-65;-64
118513;1;3;0;130;3849;91;-1862;-149;-72;-79
118523;1;3;0;130;3847;107;-1880;-150;-86;-89
118533;1;3;0;130;3858;119;-1893;-152;-77;-75
118543;1;3;0;130;3848;123;-1887;-153;-68;-70
118553;1;3;0;130;3844;106;-1870;-160;-62;-71
118563;1;3;0;130;3849;92;-1874;-158;-70;-80
118573;1;3;0;130;3828;114;-1883;-173;-69;-91
118583;1;3;0;130;3830;106;-1903;-176;-69;-92
118593;1;3;0;130;3843;106;-1865;-160;-64;-83
118603;1;3;0;130;3830;114;-1895;-160;-61;-85
118613;1;3;0;130;3841;117;-1898;-145;-67;-81
118623;1;3;0;130;3860;128;-1884;-142;-69;-69
118633;1;3;0;130;3856;110;-1884;-144;-60;-78
118643;1;3;0;130;3865;114;-1915;-164;-39;-84
118653;1;3;0;130;3857;110;-1896;-179;-38;-103
118663;1;3;0;130;3840;104;-1896;-183;-36;-104
118673;1;3;0;130;3838;112;-1883;-188;-25;-110
118683;1;3;0;130;3838;122;-1869;-168;-25;-109
118693;1;3;0;130;3823;150;-1865;-170;-25;-89
118703;1;3;0;130;3821;135;-1869;-167;-53;-66
118713;1;3;0;130;3867;105;-1859;-159;-70;-62
118723;1;3;0;130;3871;101;-1850;-152;-72;-70
118733;1;3;0;130;3899;104;-1874;-149;-75;-88
118743;1;3;0;130;3878;107;-1895;-171;-47;-103
118753;1;3;0;130;3847;103;-1884;-182;-26;-112
118763;1;3;0;130;3839;107;-1885;-188;-12;-112
118773;1;3;0;130;3860;118;-1870;-179;-35;-106
118783;1;3;0;130;3847;128;-1870;-168;-51;-92
118793;1;3;0;130;3865;121;-1863;-150;-72;-92
118803;1;3;0;130;3868;131;-1848;-147;-96;-95
118813;1;3;0;130;3878;121;-1865;-146;-107;-105
118823;1;3;0;130;3864;114;-1900;-149;-96;-104
118833;1;3;0;130;3849;86;-1914;-161;-85;-89
118843;1;3;0;130;3841;103;-1889;-162;-88;-86
118853;1;3;0;130;3845;98;-1884;-166;-92;-76
118863;1;3;0;130;3847;113;-1876;-167;-96;-77
118873;1;3;0;130;3868;135;-1850;-152;-107;-80
118883;1;3;0;130;3867;124;-1848;-153;-114;-76
118893;1;3;0;130;3840;117;-1874;-147;-107;-87
118903;1;3;0;130;3852;124;-1882;-148;-103;-81
118913;1;3;0;130;3845;138;-1880;-141;-93;-70
118922;1;3;0;131;3841;124;-1842;-137;-94;-65
118932;1;3;0;131;3841;128;-1872;-135;-96;-60
118942;1;3;0;131;3851;122;-1861;-145;-112;-69
118952;1;3;0;131;3853;126;-1856;-140;-96;-79
118962;1;3;0;131;3861;131;-1858;-157;-84;-79
118972;1;3;0;131;3861;125;-1872;-164;-78;-92
118982;1;3;0;131;3858;125;-1875;-172;-72;-98
118992;1;3;0;131;3847;124;-1884;-176;-55;-96
119002;1;3;0;131;3832;128;-1881;-170;-45;-93
119012;1;3;0;131;3842;114;-1861;-164;-35;-89
119022;1;3;0;131;3852;121;-1879;-166;-40;-93
119032;1;3;0;131;3840;129;-1867;-158;-35;-83
119042;1;3;0;131;3851;111;-1858;-164;-28;-77
119052;1;3;0;131;3863;109;-1858;-174;-27;-81
119062;1;3;0;131;3844;104;-1872;-185;-13;-97
119072;1;3;0;131;3852;123;-1865;-186;-17;-109
119082;1;3;0;131;3842;117;-1877;-197;-2;-124
119092;1;3;0;131;3839;131;-1861;-189;6;-116
119102;1;3;0;131;3861;140;-1860;-194;6;-122
119112;1;3;0;131;3861;152;-1837;-179;0;-125
119122;1;3;0;131;3869;141;-1846;-188;-2;-129
119132;1;3;0;131;3860;154;-1849;-198;13;-143
119142;1;3;0;131;3833;144;-1857;-181;31;-124
119152;1;3;0;131;3831;117;-1835;-202;34;-117
119162;1;3;0;131;3839;125;-1857;-213;38;-132
119172;1;3;0;131;3854;137;-1851;-206;31;-125
119182;1;3;0;131;3880;126;-1851;-201;34;-117
119192;1;3;0;131;3865;104;-1843;-205;65;-155
119202;1;3;0;131;3856;128;-1853;-200;65;-168
119212;1;3;0;131;3870;143;-1854;-199;83;-173
119222;1;3;0;131;3871;147;-1874;-206;200;-228
119232;1;3;0;131;3851;150;-1856;-209;231;-215
119242;1;3;0;131;3882;118;-1878;-218;169;-179
119252;1;3;0;131;3890;130;-1836;-188;85;-175
119262;1;3;0;131;3892;139;-1855;-173;81;-184
119272;1;3;0;131;3882;153;-1852;-159;84;-185
119282;1;3;0;131;3844;145;-1816;-187;130;-196
119292;1;3;0;131;3833;150;-1828;-208;135;-183
119302;1;3;0;131;3870;138;-1825;-215;121;-181
119312;1;3;0;131;3871;126;-1832;-230;114;-200
119322;1;3;0;131;3892;125;-1827;-225;75;-179
119332;1;3;0;131;3881;150;-1808;-204;32;-165
119342;1;3;0;131;3878;169;-1811;-184;-6;-132
119352;1;3;0;131;3872;162;-1810;-167;-19;-112
119362;1;3;0;131;3889;173;-1807;-162;-27;-103
119372;1;3;0;131;3895;135;-1819;-166;-23;-117
119382;1;3;0;131;3884;144;-1824;-187;3;-143
119392;1;3;0;131;3875;149;-1852;-204;57;-200
119402;1;3;0;131;3858;146;-1822;-215;59;-198
119412;1;3;0;131;3850;158;-1816;-210;89;-225
119423;1;3;0;132;3884;171;-1810;-201;25;-163
119433;1;3;0;132;3886;174;-1815;-184;80;-188
119443;1;3;0;132;3884;180;-1828;-179;28;-142
119453;1;3;0;132;3884;169;-1835;-185;58;-147
119463;1;3;0;132;3868;162;-1827;-208;98;-172
119473;1;3;0;132;3862;150;-1805;-217;60;-189
119483;1;3;0;132;3870;147;-1797;-221;53;-216
119493;1;3;0;132;3855;181;-1818;-206;22;-177
119503;1;3;0;132;3878;191;-1809;-182;9;-122
119513;1;3;0;132;3905;178;-1817;-189;-6;-114
119523;1;3;0;132;3900;171;-1785;-174;2;-118
119533;1;3;0;132;3916;161;-1791;-170;1;-129
119543;1;3;0;132;3899;160;-1782;-171;51;-156
119553;1;3;0;132;3895;164;-1802;-173;60;-162
119563;1;3;0;132;3901;175;-1799;-185;67;-152
119573;1;3;0;132;3870;182;-1794;-186;56;-137
119583;1;3;0;132;3881;164;-1803;-188;36;-134
119593;1;3;0;132;3904;165;-1788;-201;65;-182
119603;1;3;0;132;3899;188;-1800;-197;60;-194
119613;1;3;0;132;3892;173;-1803;-202;15;-177
119623;1;3;0;132;3885;173;-1801;-177;19;-170
119633;1;3;0;132;3875;197;-1778;-175;32;-147
119643;1;3;0;132;3885;182;-1787;-177;25;-122
119653;1;3;0;132;3898;186;-1782;-186;65;-131
119663;1;3;0;132;3913;165;-1795;-188;63;-142
119673;1;3;0;132;3910;184;-1772;-187;51;-171
119683;1;3;0;132;3887;188;-1773;-195;17;-167
119693;1;3;0;132;3883;177;-1773;-201;4;-173
119703;1;3;0;132;3895;193;-1799;-209;-6;-160
119713;1;3;0;132;3871;198;-1787;-177;-15;-134
119723;1;3;0;132;3889;200;-1783;-157;-21;-106
119733;1;3;0;132;3901;206;-1786;-164;-26;-97
119743;1;3;0;132;3921;197;-1781;-161;-13;-123
119753;1;3;0;132;3900;200;-1750;-174;5;-155
119763;1;3;0;132;3913;197;-1781;-183;-20;-140
119773;1;3;0;132;3905;181;-1771;-196;-31;-145
119783;1;3;0;132;3886;189;-1771;-176;-41;-130
119793;1;3;0;132;3882;186;-1774;-175;-42;-119
119803;1;3;0;132;3904;198;-1768;-163;-30;-133
119813;1;3;0;132;3914;209;-1760;-165;-61;-116
119823;1;3;0;132;3905;219;-1757;-163;-64;-106
119833;1;3;0;132;3893;201;-1774;-166;-62;-107
119843;1;3;0;132;3893;194;-1776;-161;-48;-107
119853;1;3;0;132;3894;201;-1785;-172;-30;-120
119863;1;3;0;132;3887;197;-1753;-167;-40;-114
119873;1;3;0;132;3904;198;-1764;-174;-56;-102
119883;1;3;0;132;3908;202;-1760;-177;-54;-113
119893;1;3;0;132;3897;187;-1764;-170;-37;-136
119903;1;3;0;132;3903;218;-1758;-175;-33;-142
119913;1;3;0;132;3917;225;-1756;-194;-11;-134
119923;1;3;0;133;3904;202;-1757;-201;13;-179
119933;1;3;0;133;3916;204;-1766;-188;-12;-147
119943;1;3;0;133;3902;211;-1776;-174;-10;-141
119953;1;3;0;133;3902;210;-1773;-171;-40;-127
119963;1;3;0;133;3901;201;-1778;-169;-47;-102
119973;1;3;0;133;3895;213;-1765;-170;-52;-95
119983;1;3;0;133;3910;221;-1767;-159;-65;-97
119993;1;3;0;133;3926;223;-1742;-157;-66;-98
120003;1;3;0;133;3913;213;-1765;-155;-68;-107
120013;1;3;0;133;3885;215;-1769;-162;-53;-98
120023;1;3;0;133;3897;199;-1766;-158;-66;-78
120033;1;3;0;133;3882;186;-1760;-155;-74;-76
120043;1;3;0;133;3894;202;-1762;-162;-82;-79
120053;1;3;0;133;3937;206;-1766;-163;-80;-100
120063;1;3;0;133;3915;213;-1747;-165;-73;-109
120073;1;3;0;133;3945;220;-1751;-168;-60;-102
120083;1;3;0;133;3918;210;-1729;-170;-53;-117
120093;1;3;0;133;3893;213;-1748;-158;-59;-110
120103;1;3;0;133;3906;198;-1762;-154;-54;-104
120113;1;3;0;133;3911;198;-1781;-141;-63;-79
120123;1;3;0;133;3899;182;-1783;-140;-50;-91
120133;1;3;0;133;3910;213;-1787;-159;-50;-117
120143;1;3;0;133;3915;225;-1782;-168;-33;-155
120153;1;3;0;133;3897;243;-1739;-189;34;-204
120163;1;3;0;133;3888;216;-1725;-213;-13;-191
120173;1;3;0;133;3850;211;-1715;-239;-7;-192
120183;1;3;0;133;3853;228;-1745;-211;-56;-142
120193;1;3;0;133;3880;230;-1749;-174;-93;-66
120203;1;3;0;133;3887;222;-1735;-148;-104;-23
120213;1;3;0;133;3905;230;-1716;-141;-124;-36
120223;1;3;0;133;3940;244;-1687;-140;-97;-41
120233;1;3;0;133;3945;248;-1697;-141;-75;-58
120243;1;3;0;133;3955;195;-1748;-186;90;-203
120253;1;3;0;133;3878;247;-1737;-185;111;-286
120263;1;3;0;133;3873;208;-1791;-191;-4;-121
120273;1;3;0;133;3883;233;-1793;-137;-66;-74
120283;1;3;0;133;3854;253;-1744;-123;-103;-28
120293;1;3;0;133;3891;253;-1704;-122;-140;-9
120303;1;3;0;133;3913;233;-1690;-127;-109;-38
120313;1;3;0;133;3961;174;-1742;-162;-45;-218
120323;1;3;0;133;3948;228;-1725;-194;-84;-182
120333;1;3;0;133;3924;210;-1771;-195;8;-241
120343;1;3;0;133;3946;204;-1795;-170;-80;-167
120353;1;3;0;133;3905;218;-1801;-132;-81;-84
120363;1;3;0;133;3890;217;-1793;-116;-90;-33
120373;1;3;0;133;3864;224;-1756;-121;-85;-18
120383;1;3;0;133;3887;216;-1750;-137;-78;-13
120393;1;3;0;133;3911;212;-1744;-153;-96;-30
120403;1;3;0;133;3908;205;-1743;-156;-117;-60
120413;1;3;0;133;3933;219;-1752;-137;-145;-65
120422;1;3;0;134;3928;238;-1767;-136;-127;-73
120432;1;3;0;134;3915;238;-1780;-133;-109;-65
120442;1;3;0;134;3933;246;-1756;-117;-114;-44
120452;1;3;0;134;3921;235;-1760;-126;-98;-26
120462;1;3;0;134;3934;233;-1753;-135;-95;-32
120472;1;3;0;134;3921;234;-1755;-147;-112;-42
120482;1;3;0;134;3926;222;-1738;-154;-132;-39
120492;1;3;0;134;3922;204;-1722;-139;-163;-55
120502;1;3;0;134;3898;229;-1739;-140;-182;-70
120512;1;3;0;134;3913;243;-1737;-109;-189;-39
120522;1;3;0;134;3908;251;-1757;-96;-190;-13
120532;1;3;0;134;3905;240;-1741;-106;-198;-6
120542;1;3;0;134;3902;229;-1738;-104;-207;-10
120552;1;3;0;134;3919;221;-1715;-109;-271;-7
120562;1;3;0;134;3937;207;-1742;-115;-284;-15
120572;1;3;0;134;3901;195;-1768;-130;-312;-6
120582;1;3;0;134;3900;219;-1758;-123;-319;-2
120592;1;3;0;134;3885;243;-1741;-116;-474;122
120602;1;3;0;134;3917;205;-1788;-126;-438;85
120612;1;3;0;134;3895;223;-1767;-122;-333;-1
120622;1;3;0;134;3901;205;-1771;-113;-329;14
120632;1;3;0;134;3878;197;-1758;-98;-315;8
120642;1;3;0;134;3886;217;-1761;-95;-317;4
120652;1;3;0;134;3882;231;-1734;-78;-456;124
120662;1;3;0;134;3916;185;-1796;-85;-366;47
120672;1;3;0;134;3917;222;-1795;-99;-364;26
120682;1;3;0;134;3910;215;-1765;-98;-382;57
120692;1;3;0;134;3895;197;-1797;-97;-381;67
120702;1;3;0;134;3864;219;-1765;-102;-320;42
120712;1;3;0;134;3896;201;-1771;-104;-297;51
120722;1;3;0;134;3884;206;-1796;-98;-256;8
120732;1;3;0;134;3909;222;-1792;-97;-255;-4
120742;1;3;0;134;3897;207;-1795;-103;-261;-8
120752;1;3;0;134;3873;211;-1829;-102;-313;27
120762;1;3;0;134;3879;205;-1815;-118;-250;-17
120772;1;3;0;134;3855;212;-1787;-127;-285;30
120782;1;3;0;134;3874;187;-1807;-126;-244;30
120792;1;3;0;134;3892;196;-1797;-119;-184;-2
120802;1;3;0;134;3894;191;-1811;-111;-180;-17
120812;1;3;0;134;3890;179;-1816;-111;-202;-17
120822;1;3;0;134;3875;192;-1810;-104;-252;-10
120832;1;3;0;134;3907;179;-1846;-102;-348;81
120842;1;3;0;134;3892;203;-1826;-116;-280;30
120852;1;3;0;134;3899;202;-1800;-118;-262;33
120862;1;3;0;134;3872;191;-1817;-119;-191;-13
120872;1;3;0;134;3871;198;-1809;-119;-156;-29
120882;1;3;0;134;3860;175;-1803;-107;-135;-36
120892;1;3;0;134;3855;188;-1791;-116;-145;-29
120902;1;3;0;134;3863;190;-1826;-111;-142;-24
120912;1;3;0;134;3874;182;-1795;-119;-152;-18
120922;1;3;0;135;3878;174;-1806;-137;-163;-27
120932;1;3;0;135;3895;190;-1806;-131;-159;-33
120942;1;3;0;135;3887;181;-1826;-128;-154;-45
120952;1;3;0;135;3886;191;-1825;-135;-152;-52
120962;1;3;0;135;3879;201;-1808;-140;-141;-54
120972;1;3;0;135;3871;194;-1792;-140;-139;-59
120982;1;3;0;135;3866;184;-1807;-140;-134;-57
120992;1;3;0;135;3861;195;-1801;-140;-144;-62
121002;1;3;0;135;3849;180;-1804;-144;-128;-68
121012;1;3;0;135;3861;184;-1808;-145;-108;-80
121022;1;3;0;135;3861;190;-1809;-148;-100;-81
121032;1;3;0;135;3874;190;-1821;-155;-104;-81
121042;1;3;0;135;3879;192;-1809;-154;-101;-79
121052;1;3;0;135;3907;205;-1831;-147;-78;-82
121062;1;3;0;135;3890;195;-1859;-162;-66;-78
121072;1;3;0;135;3872;171;-1828;-161;-85;-74
121082;1;3;0;135;3860;167;-1824;-142;-96;-73
121092;1;3;0;135;3849;161;-1842;-134;-110;-66
121102;1;3;0;135;3835;159;-1850;-120;-101;-57
121112;1;3;0;135;3858;171;-1847;-133;-102;-54
121122;1;3;0;135;3857;175;-1821;-133;-76;-63
121132;1;3;0;135;3835;173;-1814;-133;-85;-67
121142;1;3;0;135;3851;171;-1833;-115;-82;-79
121152;1;3;0;135;3889;189;-1836;-116;-55;-82
121162;1;3;0;135;3898;180;-1840;-115;-46;-78
121172;1;3;0;135;3893;193;-1821;-136;-25;-81
121182;1;3;0;135;3877;171;-1826;-160;-11;-108
121192;1;3;0;135;3857;189;-1791;-178;16;-116
121202;1;3;0;135;3816;190;-1769;-161;3;-71
121212;1;3;0;135;3823;157;-1788;-147;-23;-18
121222;1;3;0;135;3856;151;-1789;-121;-19;-22
121232;1;3;0;135;3911;200;-1815;-114;-2;-29
121242;1;3;0;135;3978;208;-1814;-123;22;-46
121252;1;3;0;135;3979;223;-1828;-163;72;-90
121262;1;3;0;135;3904;209;-1828;-228;112;-168
121272;1;3;0;135;3875;217;-1808;-261;86;-203
121282;1;3;0;135;3820;207;-1793;-219;51;-168
121292;1;3;0;135;3813;208;-1805;-176;26;-95
121302;1;3;0;135;3832;197;-1794;-118;32;-29
121312;1;3;0;135;3851;196;-1775;-103;42;-7
121322;1;3;0;135;3913;182;-1792;-114;42;-21
121332;1;3;0;135;3945;165;-1768;-147;78;-86
121342;1;3;0;135;3935;149;-1805;-194;64;-142
121352;1;3;0;135;3919;153;-1817;-202;43;-168
121362;1;3;0;135;3888;161;-1811;-219;29;-164
121372;1;3;0;135;3872;178;-1820;-198;4;-163
121382;1;3;0;135;3872;215;-1800;-179;-15;-139
121392;1;3;0;135;3871;212;-1780;-146;-50;-104
121402;1;3;0;135;3852;206;-1791;-142;-56;-83
121412;1;3;0;135;3869;204;-1791;-137;-17;-97
121422;1;3;0;136;3889;191;-1806;-126;-16;-92
121432;1;3;0;136;3907;171;-1791;-134;-36;-93
121442;1;3;0;136;3916;194;-1797;-139;-48;-100
121452;1;3;0;136;3914;198;-1802;-149;-46;-105
121462;1;3;0;136;3901;189;-1803;-165;5;-142
121472;1;3;0;136;3887;203;-1791;-168;5;-145
121482;1;3;0;136;3872;215;-1799;-155;-25;-116
121492;1;3;0;136;3892;207;-1800;-173;21;-140
121502;1;3;0;136;3895;197;-1786;-168;-5;-113
121512;1;3;0;136;3879;187;-1775;-167;14;-133
121522;1;3;0;136;3889;201;-1773;-159;25;-140
121532;1;3;0;136;3888;216;-1792;-156;60;-129
121542;1;3;0;136;3903;209;-1798;-158;70;-109
121552;1;3;0;136;3916;189;-1791;-169;71;-115
121562;1;3;0;136;3892;188;-1785;-170;30;-104
121572;1;3;0;136;3901;177;-1778;-161;5;-97
121582;1;3;0;136;3896;192;-1757;-161;2;-104
121592;1;3;0;136;3886;204;-1770;-167;81;-173
121602;1;3;0;136;3889;196;-1772;-174;12;-124
121612;1;3;0;136;3901;190;-1767;-178;-15;-109
121622;1;3;0;136;3914;180;-1781;-172;0;-141
121632;1;3;0;136;3902;214;-1788;-165;-21;-131
121642;1;3;0;136;3911;214;-1791;-180;-18;-109
121652;1;3;0;136;3893;208;-1794;-169;-35;-93
121662;1;3;0;136;3876;215;-1759;-155;-57;-87
121672;1;3;0;136;3896;210;-1761;-148;-58;-87
121682;1;3;0;136;3894;212;-1751;-145;-47;-99
121692;1;3;0;136;3883;199;-1774;-155;-46;-110
121702;1;3;0;136;3893;212;-1764;-172;-28;-124
121712;1;3;0;136;3883;210;-1781;-162;-68;-88
121722;1;3;0;136;3895;200;-1770;-166;-80;-70
121732;1;3;0;136;3917;198;-1766;-160;-84;-64
121742;1;3;0;136;3928;211;-1762;-159;-88;-79
121752;1;3;0;136;3932;214;-1762;-161;-82;-95
121762;1;3;0;136;3917;211;-1754;-159;-83;-95
121772;1;3;0;136;3875;206;-1756;-156;-79;-94
121782;1;3;0;136;3876;207;-1768;-153;-56;-79
121792;1;3;0;136;3863;196;-1781;-144;-9;-84
121802;1;3;0;136;3873;208;-1760;-134;-22;-84
121812;1;3;0;136;3910;218;-1754;-144;-47;-66
121822;1;3;0;136;3910;202;-1754;-149;-50;-72
121832;1;3;0;136;3908;194;-1769;-152;-21;-108
121842;1;3;0;136;3909;207;-1760;-163;-13;-124
121852;1;3;0;136;3898;204;-1774;-171;-31;-134
121862;1;3;0;136;3905;205;-1769;-169;-29;-127
121872;1;3;0;136;3899;214;-1758;-167;-23;-121
121882;1;3;0;136;3893;212;-1761;-151;-38;-106
121892;1;3;0;136;3903;219;-1741;-140;-48;-83
121902;1;3;0;136;3913;219;-1746;-146;-61;-66
121912;1;3;0;136;3907;217;-1761;-147;-62;-67
121923;1;3;0;137;3918;199;-1763;-162;-36;-87
121933;1;3;0;137;3925;209;-1747;-172;9;-147
121943;1;3;0;137;3922;197;-1771;-182;8;-152
121953;1;3;0;137;3897;221;-1773;-179;-11;-134
121963;1;3;0;137;3888;210;-1743;-204;-40;-115
121973;1;3;0;137;3879;212;-1742;-159;-69;-89
121983;1;3;0;137;3886;219;-1747;-154;-82;-64
121993;1;3;0;137;3886;226;-1759;-142;-99;-56
122003;1;3;0;137;3906;201;-1751;-147;-91;-56
122013;1;3;0;137;3926;212;-1758;-159;-88;-67
122023;1;3;0;137;3921;193;-1765;-161;-84;-75
122033;1;3;0;137;3913;197;-1779;-157;-86;-86
122043;1;3;0;137;3903;217;-1755;-157;-79;-89
122053;1;3;0;137;3922;236;-1763;-145;-98;-83
122063;1;3;0;137;3919;224;-1751;-144;-126;-85
122073;1;3;0;137;3919;218;-1737;-141;-144;-85
122083;1;3;0;137;3887;219;-1768;-139;-151;-77
122093;1;3;0;137;3898;200;-1774;-143;-170;-81
122103;1;3;0;137;3913;204;-1763;-152;-160;-75
122113;1;3;0;137;3918;213;-1765;-147;-142;-75
122123;1;3;0;137;3939;210;-1774;-151;-129;-85
122133;1;3;0;137;3941;214;-1781;-156;-132;-100
122143;1;3;0;137;3914;215;-1764;-160;-139;-109
122153;1;3;0;137;3899;224;-1755;-155;-145;-108
122163;1;3;0;137;3893;240;-1753;-141;-162;-99
122173;1;3;0;137;3873;237;-1755;-128;-177;-70
122183;1;3;0;137;3899;221;-1752;-131;-192;-36
122193;1;3;0;137;3898;225;-1750;-117;-208;-28
122203;1;3;0;137;3903;219;-1752;-109;-234;-30
122213;1;3;0;137;3923;225;-1768;-120;-268;-17
122223;1;3;0;137;3965;215;-1775;-130;-253;-16
122233;1;3;0;137;3895;193;-1758;-135;-225;-38
122243;1;3;0;137;3902;217;-1774;-116;-238;-41
122253;1;3;0;137;3892;235;-1781;-115;-240;-30
122263;1;3;0;137;3901;236;-1782;-109;-223;-18
122273;1;3;0;137;3874;215;-1775;-117;-219;-20
122283;1;3;0;137;3860;224;-1778;-95;-285;21
122293;1;3;0;137;3928;214;-1787;-74;-393;88
122303;1;3;0;137;3899;230;-1778;-78;-356;67
122313;1;3;0;137;3896;204;-1787;-95;-285;10
122323;1;3;0;137;3878;195;-1780;-112;-234;-32
122333;1;3;0;137;3868;184;-1776;-107;-242;-17
122343;1;3;0;137;3867;199;-1793;-109;-278;25
122353;1;3;0;137;3924;216;-1780;-104;-258;41
122363;1;3;0;137;3942;196;-1788;-91;-252;39
122373;1;3;0;137;3903;190;-1786;-76;-244;19
122383;1;3;0;137;3890;200;-1782;-74;-268;34
122393;1;3;0;137;3887;172;-1778;-82;-326;84
122403;1;3;0;137;3880;182;-1802;-87;-291;38
122413;1;3;0;137;3881;187;-1799;-97;-241;15
122423;1;3;0;138;3872;186;-1794;-96;-243;10
122433;1;3;0;138;3869;198;-1777;-82;-240;9
122443;1;3;0;138;3899;203;-1788;-82;-238;6
122453;1;3;0;138;3876;196;-1783;-86;-270;15
122463;1;3;0;138;3892;204;-1806;-91;-272;7
122473;1;3;0;138;3894;200;-1808;-111;-280;14
122483;1;3;0;138;3889;187;-1823;-108;-236;0
122493;1;3;0;138;3878;188;-1826;-108;-212;-10
122503;1;3;0;138;3876;202;-1820;-111;-210;-7
122513;1;3;0;138;3875;180;-1820;-102;-201;1
122523;1;3;0;138;3872;162;-1798;-100;-240;22
122533;1;3;0;138;3881;186;-1829;-92;-252;-9
122543;1;3;0;138;3844;207;-1793;-90;-265;18
122553;1;3;0;138;3874;185;-1828;-107;-322;107
122563;1;3;0;138;3870;163;-1824;-116;-231;28
122573;1;3;0;138;3879;154;-1810;-117;-225;15
122583;1;3;0;138;3892;194;-1831;-90;-390;154
122593;1;3;0;138;3897;177;-1850;-83;-306;75
122603;1;3;0;138;3863;187;-1837;-84;-224;-6
122613;1;3;0;138;3859;178;-1825;-101;-186;-17
122623;1;3;0;138;3885;155;-1837;-100;-170;-9
122633;1;3;0;138;3862;159;-1838;-115;-173;9
122643;1;3;0;138;3874;176;-1825;-118;-186;26
122653;1;3;0;138;3848;179;-1813;-100;-227;29
122663;1;3;0;138;3871;181;-1813;-100;-218;23
122673;1;3;0;138;3873;175;-1815;-90;-208;26
122683;1;3;0;138;3875;162;-1838;-100;-204;23
122693;1;3;0;138;3862;167;-1842;-99;-231;34
122703;1;3;0;138;3873;160;-1857;-99;-262;53
122713;1;3;0;138;3843;153;-1845;-98;-262;38
122723;1;3;0;138;3853;171;-1818;-93;-273;58
122733;1;3;0;138;3841;154;-1828;-86;-371;73
122743;1;3;0;138;3874;163;-1836;-53;-267;55
122753;1;3;0;138;3878;153;-1858;-59;-215;47
122763;1;3;0;138;3887;156;-1834;-90;-178;22
122773;1;3;0;138;3875;152;-1861;-120;-150;-21
122783;1;3;0;138;3860;153;-1863;-133;-137;-28
122793;1;3;0;138;3841;152;-1854;-139;-157;-5
122803;1;3;0;138;3841;145;-1858;-112;-179;1
122813;1;3;0;138;3842;159;-1862;-107;-185;-1
122823;1;3;0;138;3854;155;-1831;-112;-196;-2
122833;1;3;0;138;3860;146;-1848;-103;-194;-4
122843;1;3;0;138;3859;149;-1855;-103;-198;0
122853;1;3;0;138;3855;146;-1836;-106;-182;-5
122863;1;3;0;138;3867;133;-1855;-102;-161;-25
122873;1;3;0;138;3863;142;-1872;-111;-143;-35
122883;1;3;0;138;3856;143;-1863;-111;-132;-35
122893;1;3;0;138;3849;160;-1835;-117;-126;-37
122903;1;3;0;138;3856;152;-1845;-105;-148;-32
122913;1;3;0;138;3853;158;-1834;-126;-138;-26
122923;1;3;0;139;3849;157;-1835;-123;-136;-38
122933;1;3;0;139;3854;154;-1855;-119;-137;-35
122943;1;3;0;139;3833;130;-1862;-117;-127;-37
122953;1;3;0;139;3841;145;-1861;-125;-101;-38
122963;1;3;0;139;3855;144;-1858;-134;-86;-50
122973;1;3;0;139;3856;134;-1847;-147;-81;-59
122983;1;3;0;139;3862;150;-1854;-142;-83;-60
122993;1;3;0;139;3845;138;-1871;-153;-86;-62
123003;1;3;0;139;3846;156;-1863;-159;-81;-62
123013;1;3;0;139;3854;135;-1868;-156;-90;-59
123023;1;3;0;139;3847;127;-1862;-154;-82;-56
123033;1;3;0;139;3845;148;-1864;-145;-85;-62
123043;1;3;0;139;3869;142;-1864;-150;-86;-62
123053;1;3;0;139;3879;127;-1869;-142;-83;-67
123063;1;3;0;139;3870;134;-1859;-149;-81;-82
123073;1;3;0;139;3879;132;-1855;-152;-78;-86
123083;1;3;0;139;3848;140;-1857;-153;-87;-89
123093;1;3;0;139;3837;140;-1862;-139;-97;-87
123103;1;3;0;139;3839;158;-1862;-139;-96;-67
123113;1;3;0;139;3849;156;-1866;-133;-92;-42
123123;1;3;0;139;3873;134;-1844;-141;-107;-43
123133;1;3;0;139;3872;144;-1852;-151;-103;-69
123143;1;3;0;139;3854;140;-1863;-154;-87;-77
123153;1;3;0;139;3852;127;-1858;-159;-94;-65
123163;1;3;0;139;3840;122;-1861;-159;-105;-71
123173;1;3;0;139;3856;147;-1854;-145;-90;-77
123183;1;3;0;139;3862;161;-1837;-137;-93;-64
123193;1;3;0;139;3852;174;-1859;-124;-83;-51
123203;1;3;0;139;3833;154;-1881;-136;-79;-56
123213;1;3;0;139;3850;135;-1878;-154;-71;-70
123223;1;3;0;139;3886;141;-1904;-155;-65;-76
123233;1;3;0;139;3879;149;-1876;-151;-67;-73
123243;1;3;0;139;3871;156;-1865;-148;-67;-62
123253;1;3;0;139;3856;140;-1856;-146;-66;-65
123263;1;3;0;139;3839;135;-1814;-149;-68;-73
123273;1;3;0;139;3846;140;-1832;-132;-81;-68
123283;1;3;0;139;3864;137;-1839;-134;-82;-66
123293;1;3;0;139;3872;131;-1853;-138;-76;-67
123303;1;3;0;139;3860;124;-1863;-150;-76;-73
123313;1;3;0;139;3860;126;-1865;-143;-80;-68
123323;1;3;0;139;3865;123;-1848;-134;-83;-74
123333;1;3;0;139;3853;147;-1860;-150;-79;-78
123343;1;3;0;139;3844;157;-1868;-153;-82;-75
123353;1;3;0;139;3850;162;-1851;-143;-84;-68
123363;1;3;0;139;3854;144;-1853;-148;-89;-73
123373;1;3;0;139;3858;142;-1835;-154;-103;-73
123383;1;3;0;139;3849;142;-1847;-158;-93;-76
123393;1;3;0;139;3862;158;-1859;-151;-84;-80
123403;1;3;0;139;3858;144;-1862;-149;-82;-83
123413;1;3;0;139;3870;147;-1867;-142;-76;-94
123423;1;3;0;140;3884;162;-1868;-139;-66;-85
123433;1;3;0;140;3846;156;-1853;-157;-48;-85
123443;1;3;0;140;3863;124;-1860;-169;-41;-87
123453;1;3;0;140;3860;112;-1847;-175;-32;-103
123463;1;3;0;140;3838;142;-1854;-174;-18;-112
123473;1;3;0;140;3858;151;-1850;-169;-18;-100
123483;1;3;0;140;3851;159;-1841;-177;-31;-79
123493;1;3;0;140;3854;159;-1829;-166;-34;-75
123503;1;3;0;140;3873;144;-1849;-161;-49;-68
123513;1;3;0;140;3881;144;-1830;-142;-62;-66
123523;1;3;0;140;3879;149;-1857;-145;-56;-87
123533;1;3;0;140;3870;150;-1861;-168;-24;-95
123543;1;3;0;140;3856;145;-1840;-180;-3;-96
123553;1;3;0;140;3846;139;-1828;-169;-22;-96
123563;1;3;0;140;3849;142;-1842;-171;-33;-95
123573;1;3;0;140;3857;138;-1844;-156;-48;-94
123583;1;3;0;140;3869;155;-1839;-150;-67;-88
123593;1;3;0;140;3882;164;-1832;-149;-70;-90
123603;1;3;0;140;3871;155;-1841;-163;-66;-101
123613;1;3;0;140;3887;145;-1840;-172;-65;-109
123623;1;3;0;140;3872;143;-1848;-178;-54;-116
123633;1;3;0;140;3858;152;-1860;-182;-47;-111
123643;1;3;0;140;3860;141;-1836;-176;-50;-99
123653;1;3;0;140;3870;157;-1848;-163;-60;-93
123663;1;3;0;140;3856;151;-1836;-147;-67;-83
123673;1;3;0;140;3858;158;-1823;-133;-75;-78
123683;1;3;0;140;3870;147;-1841;-143;-64;-76
123693;1;3;0;140;3878;152;-1840;-143;-50;-81
123703;1;3;0;140;3872;147;-1862;-159;-40;-89
123713;1;3;0;140;3863;139;-1856;-166;-44;-87
123723;1;3;0;140;3847;137;-1840;-157;-49;-88
123733;1;3;0;140;3867;142;-1830;-164;-52;-84
123743;1;3;0;140;3859;152;-1825;-155;-51;-83
123753;1;3;0;140;3858;147;-1832;-155;-43;-84
123763;1;3;0;140;3866;150;-1815;-149;-42;-82
123773;1;3;0;140;3866;155;-1833;-153;-47;-86
123783;1;3;0;140;3873;146;-1839;-157;-47;-93
123793;1;3;0;140;3876;162;-1843;-165;-43;-91
123803;1;3;0;140;3879;155;-1840;-158;-41;-89
123813;1;3;0;140;3878;156;-1843;-168;-32;-89
123823;1;3;0;140;3879;143;-1842;-164;-27;-92
123833;1;3;0;140;3873;144;-1855;-153;-19;-98
123843;1;3;0;140;3866;164;-1830;-155;-8;-103
123853;1;3;0;140;3870;160;-1834;-172;-6;-110
123863;1;3;0;140;3851;170;-1832;-170;-11;-105
123873;1;3;0;140;3865;162;-1815;-171;-20;-105
123883;1;3;0;140;3860;163;-1834;-175;-44;-96
123893;1;3;0;140;3883;160;-1826;-171;-63;-89
123903;1;3;0;140;3880;164;-1830;-166;-52;-91
123913;1;3;0;140;3886;165;-1840;-172;-36;-95
123923;1;3;0;141;3874;151;-1838;-159;-3;-110
123933;1;3;0;141;3881;166;-1819;-157;14;-117
123943;1;3;0;141;3865;158;-1809;-160;29;-123
123953;1;3;0;141;3851;159;-1815;-171;33;-119
123963;1;3;0;141;3875;170;-1811;-169;-4;-103
123973;1;3;0;141;3874;160;-1821;-167;8;-100
123983;1;3;0;141;3876;163;-1803;-171;12;-104
123993;1;3;0;141;3887;164;-1824;-174;31;-123
124003;1;3;0;141;3882;167;-1840;-181;30;-143
124013;1;3;0;141;3865;170;-1823;-176;77;-179
124023;1;3;0;141;3872;168;-1831;-188;76;-144
124033;1;3;0;141;3859;165;-1811;-179;95;-135
124043;1;3;0;141;3865;163;-1818;-177;81;-120
124053;1;3;0;141;3878;175;-1824;-184;125;-158
124063;1;3;0;141;3877;157;-1818;-175;64;-100
124073;1;3;0;141;3906;141;-1821;-174;118;-147
124083;1;3;0;141;3883;155;-1785;-174;80;-147
124093;1;3;0;141;3910;153;-1843;-172;144;-185
124103;1;3;0;141;3883;174;-1810;-169;152;-188
124113;1;3;0;141;3881;181;-1796;-190;188;-226
124123;1;3;0;141;3877;161;-1798;-184;99;-171
124133;1;3;0;141;3892;179;-1815;-167;30;-142
124143;1;3;0;141;3923;198;-1804;-163;22;-135
124153;1;3;0;141;3910;200;-1795;-165;40;-134
124163;1;3;0;141;3878;185;-1771;-159;116;-156
124173;1;3;0;141;3874;160;-1788;-183;193;-194
124183;1;3;0;141;3889;157;-1794;-182;179;-218
124193;1;3;0;141;3853;201;-1755;-179;166;-206
124203;1;3;0;141;3883;181;-1788;-180;85;-128
124213;1;3;0;141;3920;187;-1769;-170;83;-150
124223;1;3;0;141;3922;177;-1768;-172;41;-125
124233;1;3;0;141;3912;177;-1770;-171;60;-144
124243;1;3;0;141;3909;183;-1788;-181;49;-150
124253;1;3;0;141;3887;175;-1781;-185;54;-151
124263;1;3;0;141;3891;177;-1790;-180;85;-166
124273;1;3;0;141;3874;204;-1770;-176;81;-153
124283;1;3;0;141;3890;182;-1772;-166;46;-124
124293;1;3;0;141;3899;190;-1775;-149;60;-126
124303;1;3;0;141;3900;207;-1755;-155;60;-131
124313;1;3;0;141;3904;194;-1776;-175;85;-144
124323;1;3;0;141;3924;208;-1744;-188;74;-146
124333;1;3;0;141;3939;222;-1788;-191;146;-235
124343;1;3;0;141;3915;159;-1802;-224;192;-299
124353;1;3;0;141;3886;194;-1738;-232;149;-237
124363;1;3;0;141;3900;195;-1750;-228;115;-220
124373;1;3;0;141;3890;176;-1758;-201;86;-205
124383;1;3;0;141;3904;213;-1755;-187;82;-194
124393;1;3;0;141;3912;229;-1744;-175;59;-154
124403;1;3;0;141;3907;213;-1754;-193;77;-145
124413;1;3;0;141;3914;202;-1738;-185;60;-139
124422;1;3;0;142;3913;192;-1732;-175;22;-131
124432;1;3;0;142;3923;209;-1745;-166;0;-118
124442;1;3;0;142;3921;205;-1763;-165;22;-121
124452;1;3;0;142;3933;200;-1742;-178;107;-204
124462;1;3;0;142;3915;213;-1759;-187;57;-157
124472;1;3;0;142;3900;216;-1732;-186;94;-206
124482;1;3;0;142;3896;209;-1753;-184;54;-170
124492;1;3;0;142;3898;229;-1743;-165;23;-134
124502;1;3;0;142;3913;229;-1740;-162;-6;-96
124512;1;3;0;142;3924;216;-1714;-153;-10;-100
124522;1;3;0;142;3938;213;-1703;-165;11;-145
124532;1;3;0;142;3920;228;-1713;-168;-1;-149
124542;1;3;0;142;3911;218;-1743;-177;22;-177
124552;1;3;0;142;3903;223;-1744;-194;28;-159
124562;1;3;0;142;3932;223;-1738;-191;-4;-140
124572;1;3;0;142;3916;221;-1727;-173;-25;-131
124582;1;3;0;142;3927;234;-1703;-168;-38;-118
124592;1;3;0;142;3920;243;-1704;-153;-61;-90
124602;1;3;0;142;3939;233;-1709;-148;-67;-73
124612;1;3;0;142;3940;230;-1704;-149;-62;-76
124622;1;3;0;142;3923;226;-1736;-152;-58;-77
124632;1;3;0;142;3934;219;-1727;-166;-29;-103
124642;1;3;0;142;3926;210;-1732;-173;27;-154
124652;1;3;0;142;3906;221;-1710;-181;-5;-134
124662;1;3;0;142;3921;229;-1709;-181;-14;-116
124672;1;3;0;142;3936;228;-1717;-178;-30;-127
124682;1;3;0;142;3922;231;-1710;-167;-39;-109
124692;1;3;0;142;3930;221;-1722;-157;-40;-116
124702;1;3;0;142;3918;224;-1733;-184;-22;-119
124712;1;3;0;142;3920;226;-1730;-174;17;-130
124722;1;3;0;142;3927;226;-1711;-166;4;-121
124732;1;3;0;142;3926;228;-1738;-169;-8;-111
124742;1;3;0;142;3916;236;-1723;-155;-30;-106
124752;1;3;0;142;3925;237;-1694;-159;-55;-102
124762;1;3;0;142;3926;234;-1700;-163;-70;-106
124772;1;3;0;142;3926;244;-1707;-173;-70;-99
124782;1;3;0;142;3942;241;-1726;-172;-62;-106
124792;1;3;0;142;3925;232;-1700;-165;-76;-95
124802;1;3;0;142;3929;230;-1713;-158;-76;-87
124812;1;3;0;142;3924;239;-1714;-148;-64;-82
124822;1;3;0;142;3921;235;-1715;-154;-51;-74
124832;1;3;0;142;3933;228;-1709;-156;-35;-85
124842;1;3;0;142;3938;222;-1703;-161;-34;-114
124852;1;3;0;142;3929;225;-1689;-165;-57;-108
124862;1;3;0;142;3915;232;-1704;-173;-77;-114
124872;1;3;0;142;3916;226;-1715;-169;-94;-114
124882;1;3;0;142;3916;221;-1710;-172;-93;-108
124892;1;3;0;142;3926;245;-1705;-150;-108;-85
124902;1;3;0;142;3924;236;-1716;-153;-101;-73
124912;1;3;0;142;3918;236;-1718;-151;-112;-79
124922;1;3;0;143;3936;229;-1724;-147;-109;-76
124932;1;3;0;143;3922;229;-1696;-151;-94;-75
124942;1;3;0;143;3924;231;-1717;-155;-93;-73
124952;1;3;0;143;3926;237;-1692;-149;-89;-70
124962;1;3;0;143;3912;242;-1693;-161;-85;-79
124972;1;3;0;143;3932;239;-1691;-146;-98;-79
124982;1;3;0;143;3925;246;-1707;-151;-106;-85
124992;1;3;0;143;3923;253;-1706;-141;-117;-89
125002;1;3;0;143;3919;248;-1691;-155;-125;-86
125012;1;3;0;143;3925;234;-1703;-152;-139;-82
125022;1;3;0;143;3930;233;-1736;-155;-139;-78
125032;1;3;0;143;3936;228;-1716;-148;-151;-63
125042;1;3;0;143;3942;224;-1719;-139;-170;-62
125052;1;3;0;143;3944;234;-1719;-140;-175;-63
125062;1;3;0;143;3933;223;-1711;-132;-179;-65
125072;1;3;0;143;3921;231;-1726;-144;-191;-68
125082;1;3;0;143;3941;237;-1715;-135;-212;-63
125092;1;3;0;143;3935;233;-1698;-133;-247;-55
125102;1;3;0;143;3932;234;-1716;-135;-280;-52
125112;1;3;0;143;3915;238;-1713;-110;-310;-39
125122;1;3;0;143;3917;246;-1731;-97;-316;-23
125132;1;3;0;143;3932;251;-1736;-101;-318;7
125142;1;3;0;143;3919;242;-1726;-112;-363;46
125152;1;3;0;143;3926;230;-1729;-120;-294;0
125162;1;3;0;143;3920;228;-1708;-132;-305;-1
125172;1;3;0;143;3936;220;-1741;-117;-311;10
125182;1;3;0;143;3908;220;-1727;-106;-300;8
125192;1;3;0;143;3895;242;-1736;-105;-368;58
125202;1;3;0;143;3924;225;-1738;-99;-340;43
125212;1;3;0;143;3925;244;-1771;-106;-284;12
125222;1;3;0;143;3918;227;-1769;-125;-306;15
125232;1;3;0;143;3913;232;-1751;-121;-314;9
125242;1;3;0;143;3923;219;-1772;-111;-366;56
125252;1;3;0;143;3917;216;-1763;-87;-308;59
125262;1;3;0;143;3912;230;-1738;-80;-290;27
125272;1;3;0;143;3879;231;-1720;-90;-249;9
125282;1;3;0;143;3892;208;-1766;-109;-337;87
125292;1;3;0;143;3888;204;-1770;-114;-245;14
125302;1;3;0;143;3894;207;-1748;-124;-253;-2
125312;1;3;0;143;3901;206;-1746;-126;-296;21
125322;1;3;0;143;3923;219;-1756;-104;-355;74
125332;1;3;0;143;3905;212;-1753;-97;-309;31
125342;1;3;0;143;3898;207;-1753;-107;-287;26
125352;1;3;0;143;3904;209;-1765;-100;-312;67
125362;1;3;0;143;3901;203;-1767;-100;-253;26
125372;1;3;0;143;3907;214;-1777;-83;-285;13
125382;1;3;0;143;3902;213;-1795;-110;-261;1
125392;1;3;0;143;3883;212;-1770;-125;-251;-17
125402;1;3;0;143;3889;207;-1755;-115;-253;-21
125412;1;3;0;143;3901;225;-1767;-118;-294;9
125422;1;3;0;144;3883;200;-1774;-111;-317;33
125432;1;3;0;144;3917;192;-1850;-91;-474;219
125442;1;3;0;144;3884;209;-1803;-107;-270;46
125452;1;3;0;144;3902;209;-1798;-105;-257;48
125462;1;3;0;144;3905;208;-1828;-112;-239;32
125472;1;3;0;144;3890;182;-1809;-124;-244;24
125482;1;3;0;144;3880;178;-1795;-139;-217;-23
125492;1;3;0;144;3854;209;-1769;-103;-273;20
125502;1;3;0;144;3880;192;-1818;-101;-337;102
125512;1;3;0;144;3864;172;-1799;-85;-255;32
125522;1;3;0;144;3888;184;-1791;-109;-218;16
125532;1;3;0;144;3898;182;-1771;-112;-217;-1
125542;1;3;0;144;3912;192;-1809;-104;-217;0
125552;1;3;0;144;3888;179;-1805;-110;-162;-25
125562;1;3;0;144;3874;181;-1814;-121;-124;-43
125572;1;3;0;144;3864;185;-1806;-134;-127;-42
125582;1;3;0;144;3871;195;-1808;-122;-132;-29
125592;1;3;0;144;3896;190;-1790;-118;-148;-20
125602;1;3;0;144;3880;192;-1805;-114;-163;-21
125612;1;3;0;144;3871;180;-1794;-116;-160;-35
125622;1;3;0;144;3872;173;-1805;-122;-154;-43
125632;1;3;0;144;3889;178;-1818;-133;-133;-53
125642;1;3;0;144;3890;173;-1805;-132;-126;-58
125652;1;3;0;144;3878;182;-1806;-131;-112;-58
125662;1;3;0;144;3876;192;-1792;-135;-100;-61
125672;1;3;0;144;3870;198;-1794;-129;-97;-57
125682;1;3;0;144;3875;191;-1791;-140;-102;-66
125692;1;3;0;144;3865;193;-1794;-146;-101;-72
125702;1;3;0;144;3871;184;-1783;-142;-93;-72
125712;1;3;0;144;3870;191;-1805;-150;-83;-70
125722;1;3;0;144;3877;188;-1822;-152;-71;-67
125732;1;3;0;144;3876;206;-1803;-147;-71;-64
125742;1;3;0;144;3884;190;-1800;-144;-71;-56
125752;1;3;0;144;3889;190;-1806;-146;-69;-63
125762;1;3;0;144;3875;170;-1789;-155;-76;-70
125772;1;3;0;144;3874;164;-1805;-161;-73;-78
125782;1;3;0;144;3875;186;-1818;-166;-56;-84
125792;1;3;0;144;3873;179;-1804;-157;-52;-90
125802;1;3;0;144;3872;193;-1814;-153;-46;-86
125812;1;3;0;144;3873;188;-1800;-145;-59;-68
125822;1;3;0;144;3873;182;-1781;-137;-62;-59
125832;1;3;0;144;3874;184;-1794;-139;-68;-64
125842;1;3;0;144;3885;182;-1784;-149;-62;-73
125852;1;3;0;144;3877;176;-1796;-157;-65;-79
125862;1;3;0;144;3888;176;-1797;-159;-55;-80
125872;1;3;0;144;3896;176;-1811;-166;-50;-97
125882;1;3;0;144;3887;197;-1817;-165;-60;-95
125892;1;3;0;144;3889;199;-1795;-165;-61;-87
125902;1;3;0;144;3883;183;-1817;-149;-64;-79
125912;1;3;0;144;3879;185;-1801;-161;-65;-75
125922;1;3;0;145;3880;193;-1801;-147;-60;-74
125932;1;3;0;145;3879;179;-1781;-153;-43;-69
125942;1;3;0;145;3889;179;-1787;-164;-39;-75
125952;1;3;0;145;3906;179;-1794;-164;-47;-87
125962;1;3;0;145;3902;183;-1800;-162;-57;-90
125972;1;3;0;145;3900;195;-1805;-163;-61;-95
125982;1;3;0;145;3891;191;-1825;-170;-66;-90
125992;1;3;0;145;3886;174;-1801;-171;-72;-93
126002;1;3;0;145;3884;182;-1796;-165;-68;-93
126012;1;3;0;145;3874;189;-1806;-173;-52;-95
126022;1;3;0;145;3873;194;-1802;-159;-47;-87
126032;1;3;0;145;3895;186;-1790;-144;-56;-78
126042;1;3;0;145;3881;203;-1796;-138;-65;-70
126052;1;3;0;145;3897;191;-1799;-131;-76;-78
126062;1;3;0;145;3906;193;-1779;-132;-100;-82
126072;1;3;0;145;3902;185;-1803;-145;-103;-97
126082;1;3;0;145;3868;194;-1805;-150;-88;-111
126092;1;3;0;145;3880;197;-1812;-151;-92;-94
126102;1;3;0;145;3880;188;-1789;-158;-94;-80
126112;1;3;0;145;3878;179;-1784;-179;-87;-91
126122;1;3;0;145;3895;205;-1795;-166;-73;-88
126132;1;3;0;145;3892;193;-1790;-156;-75;-56
126142;1;3;0;145;3887;172;-1797;-150;-66;-63
126152;1;3;0;145;3891;183;-1794;-135;-52;-76
126162;1;3;0;145;3890;193;-1792;-131;-41;-80
126172;1;3;0;145;3892;211;-1812;-148;-14;-77
126182;1;3;0;145;3881;202;-1812;-167;38;-89
126192;1;3;0;145;3862;188;-1811;-175;29;-100
126202;1;3;0;145;3898;195;-1793;-173;-6;-95
126212;1;3;0;145;3920;187;-1787;-149;-25;-81
126222;1;3;0;145;3897;185;-1798;-149;5;-87
126232;1;3;0;145;3910;179;-1785;-161;110;-145
126242;1;3;0;145;3870;195;-1775;-174;132;-142
126252;1;3;0;145;3872;179;-1764;-183;183;-166
126262;1;3;0;145;3884;201;-1767;-179;195;-171
126272;1;3;0;145;3910;187;-1778;-185;112;-124
126282;1;3;0;145;3905;196;-1760;-171;49;-116
126292;1;3;0;145;3903;202;-1760;-157;32;-122
126302;1;3;0;145;3921;194;-1770;-175;45;-136
126312;1;3;0;145;3902;197;-1764;-166;43;-137
126322;1;3;0;145;3890;196;-1782;-167;57;-143
126332;1;3;0;145;3888;185;-1775;-175;46;-136
126342;1;3;0;145;3900;200;-1758;-179;62;-151
126352;1;3;0;145;3922;193;-1763;-181;73;-160
126362;1;3;0;145;3910;223;-1762;-170;85;-184
126372;1;3;0;145;3909;209;-1763;-157;53;-149
126382;1;3;0;145;3898;222;-1758;-155;20;-128
126392;1;3;0;145;3910;217;-1778;-166;24;-131
126402;1;3;0;145;3910;214;-1760;-169;43;-147
126412;1;3;0;145;3902;225;-1762;-170;52;-145
126423;1;3;0;146;3886;174;-1746;-190;62;-146
126433;1;3;0;146;3913;189;-1740;-177;-2;-120
126443;1;3;0;146;3911;211;-1756;-171;-20;-127
126453;1;3;0;146;3902;212;-1762;-165;-2;-123
126463;1;3;0;146;3899;225;-1748;-165;44;-139
126473;1;3;0;146;3888;220;-1765;-180;32;-110
126483;1;3;0;146;3897;200;-1722;-181;-11;-90
126493;1;3;0;146;3901;200;-1741;-171;-3;-96
126503;1;3;0;146;3914;212;-1732;-167;9;-110
126513;1;3;0;146;3924;212;-1738;-171;53;-159
126523;1;3;0;146;3939;216;-1751;-170;37;-152
126533;1;3;0;146;3908;199;-1759;-179;47;-169
126543;1;3;0;146;3908;219;-1731;-171;75;-227
126553;1;3;0;146;3914;211;-1757;-180;-4;-144
126563;1;3;0;146;3912;230;-1753;-176;-8;-124
126573;1;3;0;146;3908;209;-1736;-166;-19;-118
126583;1;3;0;146;3907;222;-1728;-172;-58;-117
126593;1;3;0;146;3918;223;-1730;-165;-70;-92
126603;1;3;0;146;3923;226;-1736;-147;-93;-80
126613;1;3;0;146;3922;213;-1747;-146;-88;-73
126623;1;3;0;146;3919;211;-1758;-146;-82;-70
126633;1;3;0;146;3931;208;-1744;-150;-64;-86
126643;1;3;0;146;3908;227;-1741;-155;-54;-89
126653;1;3;0;146;3897;218;-1732;-158;-49;-98
126663;1;3;0;146;3910;232;-1713;-160;-47;-102
126673;1;3;0;146;3915;233;-1728;-147;-69;-92
126683;1;3;0;146;3905;227;-1730;-143;-81;-90
126693;1;3;0;146;3923;235;-1729;-153;-82;-87
126703;1;3;0;146;3907;223;-1742;-159;-81;-90
126713;1;3;0;146;3914;217;-1752;-156;-73;-93
126723;1;3;0;146;3908;217;-1741;-158;-72;-92
126733;1;3;0;146;3913;215;-1727;-161;-67;-92
126743;1;3;0;146;3915;228;-1722;-153;-76;-84
126753;1;3;0;146;3926;220;-1740;-149;-83;-77
126763;1;3;0;146;3931;221;-1755;-150;-76;-88
126773;1;3;0;146;3932;226;-1727;-152;-80;-87
126783;1;3;0;146;3917;223;-1749;-147;-82;-82
126793;1;3;0;146;3917;217;-1746;-146;-83;-72
126803;1;3;0;146;3921;226;-1728;-154;-77;-63
126813;1;3;0;146;3909;225;-1724;-145;-90;-68
126823;1;3;0;146;3915;221;-1735;-145;-99;-67
126833;1;3;0;146;3922;220;-1732;-146;-105;-70
126843;1;3;0;146;3908;243;-1738;-145;-116;-80
126853;1;3;0;146;3914;233;-1737;-138;-106;-69
126863;1;3;0;146;3918;212;-1725;-131;-108;-70
126873;1;3;0;146;3918;226;-1725;-137;-109;-65
126883;1;3;0;146;3924;228;-1726;-147;-98;-69
126893;1;3;0;146;3914;220;-1739;-146;-98;-76
126903;1;3;0;146;3907;222;-1720;-144;-95;-73
126913;1;3;0;146;3905;216;-1715;-150;-96;-74
126922;1;3;0;147;3909;236;-1710;-155;-97;-73
126932;1;3;0;147;3917;228;-1725;-149;-103;-73
126942;1;3;0;147;3920;229;-1730;-160;-112;-80
126952;1;3;0;147;3921;213;-1750;-145;-114;-76
126962;1;3;0;147;3908;219;-1743;-149;-111;-73
126972;1;3;0;147;3911;232;-1750;-143;-116;-64
126982;1;3;0;147;3918;231;-1748;-142;-119;-64
126992;1;3;0;147;3920;221;-1724;-147;-114;-60
127002;1;3;0;147;3915;217;-1723;-140;-117;-61
127012;1;3;0;147;3908;224;-1736;-142;-114;-67
127022;1;3;0;147;3913;215;-1733;-151;-118;-78
127032;1;3;0;147;3921;223;-1724;-155;-111;-88
127042;1;3;0;147;3900;235;-1725;-160;-97;-83
127052;1;3;0;147;3912;223;-1734;-164;-100;-75
127062;1;3;0;147;3925;225;-1739;-150;-106;-70
127072;1;3;0;147;3918;223;-1749;-142;-123;-79
127082;1;3;0;147;3939;246;-1741;-146;-128;-87
127092;1;3;0;147;3942;233;-1759;-142;-130;-76
127102;1;3;0;147;3934;216;-1732;-161;-145;-75
127112;1;3;0;147;3913;219;-1729;-169;-161;-96
127122;1;3;0;147;3904;227;-1747;-172;-159;-95
127132;1;3;0;147;3919;206;-1745;-160;-167;-64
127142;1;3;0;147;3923;196;-1751;-139;-190;-47
127152;1;3;0;147;3892;204;-1730;-129;-177;-58
127162;1;3;0;147;3920;230;-1746;-108;-171;-46
127172;1;3;0;147;3929;249;-1740;-118;-179;-43
127182;1;3;0;147;3904;234;-1751;-140;-190;-51
127192;1;3;0;147;3882;216;-1759;-125;-232;-47
127202;1;3;0;147;3887;215;-1722;-107;-331;19
127212;1;3;0;147;3923;219;-1758;-99;-356;33
127222;1;3;0;147;3909;224;-1758;-86;-302;1
127232;1;3;0;147;3902;237;-1750;-89;-243;-22
127242;1;3;0;147;3879;223;-1740;-112;-214;-26
127252;1;3;0;147;3902;241;-1744;-121;-213;-31
127262;1;3;0;147;3906;237;-1752;-143;-210;-34
127272;1;3;0;147;3920;221;-1759;-143;-228;-19
127282;1;3;0;147;3931;213;-1761;-127;-267;2
127292;1;3;0;147;3929;209;-1758;-123;-239;-16
127302;1;3;0;147;3908;205;-1761;-117;-205;-32
127312;1;3;0;147;3908;212;-1755;-96;-237;2
127322;1;3;0;147;3893;213;-1762;-106;-232;-7
127332;1;3;0;147;3861;208;-1759;-110;-238;5
127342;1;3;0;147;3891;208;-1781;-98;-260;31
127352;1;3;0;147;3891;216;-1787;-123;-234;18
127362;1;3;0;147;3882;222;-1767;-102;-204;-10
127372;1;3;0;147;3894;226;-1760;-102;-216;-9
127382;1;3;0;147;3904;229;-1765;-99;-283;28
127392;1;3;0;147;3911;226;-1772;-95;-248;14
127402;1;3;0;147;3884;235;-1772;-95;-351;97
127412;1;3;0;147;3919;207;-1821;-110;-231;22
127422;1;3;0;148;3890;203;-1785;-123;-165;-28
127432;1;3;0;148;3889;193;-1776;-129;-183;-37
127442;1;3;0;148;3876;194;-1781;-130;-228;-33
127452;1;3;0;148;3889;209;-1786;-117;-332;32
127462;1;3;0;148;3883;216;-1786;-101;-303;16
127472;1;3;0;148;3897;211;-1780;-84;-269;40
127482;1;3;0;148;3875;199;-1771;-95;-211;11
127492;1;3;0;148;3884;202;-1746;-89;-217;5
127502;1;3;0;148;3901;193;-1786;-82;-303;67
127512;1;3;0;148;3869;176;-1781;-99;-223;-18
127522;1;3;0;148;3880;200;-1800;-106;-176;-27
127532;1;3;0;148;3872;193;-1783;-123;-189;-10
127542;1;3;0;148;3874;191;-1803;-119;-362;127
127552;1;3;0;148;3896;195;-1805;-120;-213;8
127562;1;3;0;148;3887;190;-1802;-118;-176;-23
127572;1;3;0;148;3873;177;-1784;-126;-169;-39
127582;1;3;0;148;3869;171;-1796;-131;-158;-45
127592;1;3;0;148;3873;186;-1814;-134;-147;-54
127602;1;3;0;148;3870;199;-1804;-141;-124;-64
127612;1;3;0;148;3880;195;-1802;-139;-108;-60
127622;1;3;0;148;3877;200;-1786;-137;-102;-53
127632;1;3;0;148;3881;204;-1788;-128;-93;-51
127642;1;3;0;148;3879;194;-1777;-137;-91;-52
127652;1;3;0;148;3879;195;-1785;-131;-88;-56
127662;1;3;0;148;3888;193;-1803;-136;-81;-62
127672;1;3;0;148;3884;202;-1799;-149;-93;-69
127682;1;3;0;148;3889;201;-1792;-160;-90;-77
127692;1;3;0;148;3887;202;-1793;-156;-82;-76
127702;1;3;0;148;3868;181;-1797;-165;-67;-73
127712;1;3;0;148;3881;199;-1810;-152;-70;-66
127722;1;3;0;148;3884;185;-1797;-149;-52;-64
127732;1;3;0;148;3871;178;-1814;-145;-66;-59
127742;1;3;0;148;3889;173;-1784;-137;-77;-63
127752;1;3;0;148;3879;198;-1800;-147;-71;-68
127762;1;3;0;148;3876;181;-1802;-153;-71;-77
127772;1;3;0;148;3884;181;-1785;-158;-77;-75
127782;1;3;0;148;3891;193;-1793;-154;-69;-76
127792;1;3;0;148;3877;192;-1792;-168;-52;-88
127802;1;3;0;148;3888;176;-1787;-167;-47;-91
127812;1;3;0;148;3875;195;-1788;-158;-44;-89
127822;1;3;0;148;3875;195;-1795;-163;-40;-83
127832;1;3;0;148;3872;192;-1804;-159;-40;-82
127842;1;3;0;148;3882;185;-1803;-159;-42;-82
127852;1;3;0;148;3889;195;-1793;-158;-41;-76
127862;1;3;0;148;3896;190;-1784;-167;-21;-81
127872;1;3;0;148;3896;206;-1804;-169;-3;-82
127882;1;3;0;148;3908;189;-1781;-172;8;-85
127892;1;3;0;148;3896;190;-1794;-171;16;-98
127902;1;3;0;148;3879;195;-1792;-175;34;-113
127912;1;3;0;148;3894;201;-1780;-169;99;-129
127923;1;3;0;149;3888;198;-1791;-164;55;-98
127933;1;3;0;149;3892;188;-1785;-168;83;-114
127943;1;3;0;149;3898;190;-1805;-169;117;-139
127953;1;3;0;149;3893;189;-1785;-179;112;-143
127963;1;3;0;149;3896;192;-1787;-190;151;-173
127973;1;3;0;149;3910;207;-1785;-186;116;-166
127983;1;3;0;149;3910;185;-1779;-190;82;-152
127993;1;3;0;149;3891;206;-1780;-175;48;-151
128003;1;3;0;149;3886;219;-1762;-168;7;-131
128013;1;3;0;149;3889;215;-1795;-165;24;-124
128023;1;3;0;149;3922;213;-1764;-159;49;-125
128033;1;3;0;149;3920;193;-1766;-176;67;-147
128043;1;3;0;149;3896;216;-1759;-186;143;-207
128053;1;3;0;149;3905;197;-1769;-192;110;-161
128063;1;3;0;149;3896;191;-1765;-176;104;-165
128073;1;3;0;149;3879;197;-1766;-167;35;-136
128083;1;3;0;149;3902;206;-1760;-162;1;-129
128093;1;3;0;149;3918;233;-1759;-155;26;-142
128103;1;3;0;149;3881;220;-1772;-162;45;-132
128113;1;3;0;149;3890;205;-1760;-171;45;-126
128123;1;3;0;149;3911;208;-1769;-163;24;-140
128133;1;3;0;149;3919;211;-1782;-152;-34;-104
128143;1;3;0;149;3930;223;-1773;-150;-28;-94
128153;1;3;0;149;3912;218;-1762;-147;26;-119
128163;1;3;0;149;3884;218;-1760;-167;57;-133
128173;1;3;0;149;3896;226;-1722;-165;49;-114
128183;1;3;0;149;3897;213;-1730;-167;65;-142
128193;1;3;0;149;3927;214;-1731;-158;60;-156
128203;1;3;0;149;3938;233;-1748;-157;64;-174
128213;1;3;0;149;3918;221;-1736;-154;18;-127
128223;1;3;0;149;3916;210;-1745;-160;24;-127
128233;1;3;0;149;3914;207;-1747;-152;41;-152
128243;1;3;0;149;3889;196;-1747;-160;54;-149
128253;1;3;0;149;3901;223;-1734;-153;30;-110
128263;1;3;0;149;3908;220;-1744;-159;22;-101
128273;1;3;0;149;3917;222;-1734;-150;24;-106
128283;1;3;0;149;3924;221;-1710;-155;-12;-105
128293;1;3;0;149;3924;219;-1723;-151;-36;-112
128303;1;3;0;149;3908;235;-1728;-163;-33;-126
128313;1;3;0;149;3913;239;-1727;-157;-54;-101
128323;1;3;0;149;3906;240;-1736;-160;-40;-96
128333;1;3;0;149;3892;238;-1722;-151;-15;-106
128343;1;3;0;149;3905;216;-1730;-142;-27;-87
128353;1;3;0;149;3916;209;-1727;-146;-33;-83
128363;1;3;0;149;3921;213;-1739;-142;-62;-76
128373;1;3;0;149;3918;219;-1737;-152;-58;-87
128383;1;3;0;149;3924;229;-1728;-161;-52;-93
128393;1;3;0;149;3921;215;-1725;-179;-29;-111
128403;1;3;0;149;3928;218;-1710;-167;-60;-102
128413;1;3;0;149;3918;217;-1718;-158;-95;-91
128423;1;3;0;150;3926;235;-1724;-152;-88;-87
128433;1;3;0;150;3935;239;-1729;-159;-60;-87
128443;1;3;0;150;3929;221;-1735;-151;-9;-95
128453;1;3;0;150;3909;232;-1719;-139;26;-117
128463;1;3;0;150;3919;231;-1742;-143;-2;-103
128473;1;3;0;150;3918;240;-1747;-157;-32;-77
128483;1;3;0;150;3923;234;-1729;-162;-44;-77
128493;1;3;0;150;3916;228;-1735;-166;-74;-84
128503;1;3;0;150;3905;238;-1698;-175;-89;-89
128513;1;3;0;150;3906;235;-1697;-151;-97;-84
128523;1;3;0;150;3902;219;-1729;-145;-86;-77
128533;1;3;0;150;3906;227;-1729;-136;-85;-63
128543;1;3;0;150;3931;210;-1753;-146;-67;-68
128553;1;3;0;150;3960;199;-1760;-148;-29;-99
128563;1;3;0;150;3953;219;-1734;-166;33;-173
128573;1;3;0;150;3961;234;-1752;-176;-15;-148
128583;1;3;0;150;3915;226;-1742;-191;-7;-167
128593;1;3;0;150;3876;250;-1720;-197;-10;-168
128603;1;3;0;150;3870;270;-1687;-186;-3;-133
128613;1;3;0;150;3840;256;-1669;-174;-33;-119
128623;1;3;0;150;3881;232;-1706;-125;-69;-35
128633;1;3;0;150;3906;240;-1735;-99;-68;5
128643;1;3;0;150;3944;226;-1706;-120;-85;17
128653;1;3;0;150;3977;226;-1689;-147;-97;-20
128663;1;3;0;150;3992;229;-1683;-185;-89;-100
128673;1;3;0;150;3944;260;-1690;-215;1;-204
128683;1;3;0;150;3953;275;-1726;-288;-22;-230
128693;1;3;0;150;3888;241;-1701;-269;22;-217
128703;1;3;0;150;3855;262;-1726;-205;23;-106
128713;1;3;0;150;3904;270;-1718;-167;-8;-40
128723;1;3;0;150;3917;265;-1676;-140;-65;8
128733;1;3;0;150;3942;226;-1652;-199;-42;-48
128743;1;3;0;150;3971;198;-1669;-239;5;-165
128753;1;3;0;150;3966;213;-1729;-216;-134;-157
128763;1;3;0;150;3950;228;-1778;-215;-147;-161
128773;1;3;0;150;3919;225;-1787;-160;-123;-97
128783;1;3;0;150;3885;243;-1761;-129;-106;-47
128793;1;3;0;150;3903;239;-1713;-113;-120;-19
128803;1;3;0;150;3929;243;-1689;-115;-174;-28
128813;1;3;0;150;3933;232;-1674;-124;-216;-67
128823;1;3;0;150;3947;241;-1708;-140;-207;-98
128833;1;3;0;150;3954;223;-1732;-151;-174;-109
128843;1;3;0;150;3921;239;-1755;-145;-138;-104
128853;1;3;0;150;3919;240;-1756;-139;-125;-91
128863;1;3;0;150;3898;250;-1740;-141;-142;-66
128873;1;3;0;150;3911;252;-1681;-133;-168;-51
128883;1;3;0;150;3947;248;-1680;-127;-216;-42
128893;1;3;0;150;3961;250;-1686;-116;-238;-46
128903;1;3;0;150;3951;240;-1703;-117;-238;-53
128913;1;3;0;150;3947;231;-1715;-107;-223;-45
128922;1;3;0;151;3920;242;-1724;-114;-220;-60
128932;1;3;0;151;3912;244;-1733;-104;-241;-59
128942;1;3;0;151;3926;248;-1745;-111;-268;-30
128952;1;3;0;151;3922;248;-1730;-94;-300;1
128962;1;3;0;151;3910;248;-1744;-105;-314;-2
128972;1;3;0;151;3892;244;-1703;-102;-397;48
128982;1;3;0;151;3890;225;-1728;-113;-346;21
128992;1;3;0;151;3910;232;-1711;-101;-341;35
129002;1;3;0;151;3939;215;-1764;-116;-312;20
129012;1;3;0;151;3930;222;-1757;-110;-304;8
129022;1;3;0;151;3894;256;-1727;-102;-368;54
129032;1;3;0;151;3921;212;-1771;-126;-275;-7
129042;1;3;0;151;3910;249;-1781;-113;-247;-17
129052;1;3;0;151;3922;248;-1742;-125;-268;-11
129062;1;3;0;151;3879;248;-1747;-119;-333;22
129072;1;3;0;151;3907;212;-1745;-109;-352;32
129082;1;3;0;151;3907;252;-1749;-85;-448;83
129092;1;3;0;151;3924;243;-1776;-83;-322;16
129102;1;3;0;151;3926;225;-1784;-95;-294;31
129112;1;3;0;151;3885;215;-1754;-113;-406;122
129122;1;3;0;151;3870;220;-1749;-119;-266;-21
129132;1;3;0;151;3874;216;-1759;-109;-493;166
129142;1;3;0;151;3910;197;-1761;-109;-298;53
129152;1;3;0;151;3876;198;-1757;-103;-240;11
129162;1;3;0;151;3890;222;-1775;-94;-233;-4
129172;1;3;0;151;3907;240;-1750;-91;-229;-24
129182;1;3;0;151;3898;231;-1788;-98;-211;-9
129192;1;3;0;151;3878;212;-1779;-113;-228;-6
129202;1;3;0;151;3862;201;-1770;-91;-409;107
129212;1;3;0;151;3916;194;-1817;-86;-410;104
129222;1;3;0;151;3933;214;-1816;-88;-428;162
129232;1;3;0;151;3880;205;-1786;-98;-256;24
129242;1;3;0;151;3848;195;-1785;-101;-203;-10
129252;1;3;0;151;3876;198;-1790;-110;-205;3
129262;1;3;0;151;3876;202;-1776;-106;-232;16
129272;1;3;0;151;3922;176;-1812;-105;-329;98
129282;1;3;0;151;3900;197;-1796;-118;-231;9
129292;1;3;0;151;3883;201;-1782;-102;-289;42
129302;1;3;0;151;3884;187;-1794;-92;-335;70
129312;1;3;0;151;3910;199;-1797;-100;-279;28
129322;1;3;0;151;3889;186;-1804;-111;-338;98
129332;1;3;0;151;3890;183;-1814;-115;-259;25
129342;1;3;0;151;3894;200;-1809;-113;-245;7
129352;1;3;0;151;3863;205;-1824;-106;-213;-21
129362;1;3;0;151;3869;199;-1811;-111;-199;-21
129372;1;3;0;151;3870;206;-1797;-109;-241;-11
129382;1;3;0;151;3863;206;-1800;-97;-251;9
129392;1;3;0;151;3887;193;-1805;-83;-203;20
129402;1;3;0;151;3896;179;-1812;-111;-189;13
129412;1;3;0;151;3886;180;-1843;-120;-199;-15
129423;1;3;0;152;3874;189;-1829;-132;-182;-26
129433;1;3;0;152;3873;169;-1805;-130;-234;-4
129443;1;3;0;152;3863;164;-1831;-126;-256;-5
129453;1;3;0;152;3870;189;-1818;-126;-246;-1
129463;1;3;0;152;3855;185;-1816;-117;-200;-13
129473;1;3;0;152;3857;195;-1801;-109;-200;-10
129483;1;3;0;152;3882;184;-1823;-120;-175;-20
129493;1;3;0;152;3886;185;-1827;-126;-166;-27
129503;1;3;0;152;3873;177;-1831;-115;-183;-27
129513;1;3;0;152;3879;183;-1838;-110;-165;-21
129523;1;3;0;152;3859;183;-1849;-119;-148;-19
129533;1;3;0;152;3836;176;-1826;-110;-159;-16
129543;1;3;0;152;3853;163;-1829;-106;-182;7
129553;1;3;0;152;3857;167;-1824;-104;-188;0
129563;1;3;0;152;3871;162;-1835;-126;-179;-23
129573;1;3;0;152;3887;174;-1835;-143;-154;-52
129583;1;3;0;152;3887;172;-1837;-146;-132;-61
129593;1;3;0;152;3899;178;-1832;-143;-119;-67
129603;1;3;0;152;3881;162;-1855;-129;-114;-72
129613;1;3;0;152;3858;172;-1844;-132;-122;-53
129623;1;3;0;152;3845;181;-1830;-131;-112;-58
129633;1;3;0;152;3848;182;-1798;-131;-125;-49
129643;1;3;0;152;3850;163;-1800;-127;-134;-36
129653;1;3;0;152;3859;160;-1816;-127;-138;-48
129663;1;3;0;152;3861;168;-1828;-142;-134;-54
129673;1;3;0;152;3884;187;-1860;-140;-118;-63
129683;1;3;0;152;3886;182;-1858;-147;-96;-75
129693;1;3;0;152;3866;182;-1840;-149;-83;-60
129703;1;3;0;152;3876;180;-1834;-149;-87;-73
129713;1;3;0;152;3867;179;-1823;-148;-85;-72
129723;1;3;0;152;3865;177;-1810;-131;-85;-65
129733;1;3;0;152;3849;176;-1818;-136;-104;-57
129743;1;3;0;152;3854;168;-1817;-142;-104;-66
129753;1;3;0;152;3872;179;-1825;-144;-109;-60
129763;1;3;0;152;3892;187;-1830;-136;-98;-70
129773;1;3;0;152;3886;178;-1828;-143;-83;-73
129783;1;3;0;152;3871;167;-1844;-144;-86;-74
129793;1;3;0;152;3889;172;-1834;-156;-83;-72
129803;1;3;0;152;3863;169;-1823;-148;-82;-85
129813;1;3;0;152;3853;170;-1819;-155;-79;-80
129823;1;3;0;152;3867;179;-1834;-152;-65;-68
129833;1;3;0;152;3881;179;-1843;-150;-83;-77
129843;1;3;0;152;3860;183;-1831;-154;-78;-77
129853;1;3;0;152;3879;163;-1830;-153;-69;-71
129863;1;3;0;152;3869;166;-1812;-155;-66;-73
129873;1;3;0;152;3866;179;-1822;-147;-66;-87
129883;1;3;0;152;3881;177;-1820;-159;-88;-83
129893;1;3;0;152;3867;181;-1839;-160;-95;-95
129903;1;3;0;152;3868;180;-1844;-158;-90;-89
129913;1;3;0;152;3870;180;-1836;-147;-93;-67
129922;1;3;0;153;3867;179;-1833;-155;-72;-79
129932;1;3;0;153;3863;179;-1797;-147;-72;-73
129942;1;3;0;153;3866;179;-1821;-151;-61;-82
129952;1;3;0;153;3866;174;-1821;-151;-48;-83
129962;1;3;0;153;3876;174;-1839;-153;-47;-68
129972;1;3;0;153;3887;168;-1820;-161;-49;-79
129982;1;3;0;153;3866;177;-1821;-162;-60;-98
129992;1;3;0;153;3872;183;-1826;-171;-78;-104
130002;1;3;0;153;3878;176;-1837;-168;-96;-101
130012;1;3;0;153;3847;190;-1832;-166;-86;-98
130022;1;3;0;153;3860;203;-1817;-150;-77;-96
130032;1;3;0;153;3871;192;-1835;-146;-66;-73
130042;1;3;0;153;3869;170;-1837;-155;-66;-54
130052;1;3;0;153;3896;153;-1820;-161;-71;-78
130062;1;3;0;153;3868;179;-1806;-167;-61;-100
130072;1;3;0;153;3865;174;-1813;-159;-60;-75
130082;1;3;0;153;3868;149;-1843;-150;-69;-63
130092;1;3;0;153;3869;163;-1839;-153;-51;-82
130102;1;3;0;153;3870;185;-1826;-144;-55;-91
130112;1;3;0;153;3880;206;-1828;-143;-58;-84
130122;1;3;0;153;3859;188;-1822;-155;-13;-75
130132;1;3;0;153;3859;184;-1851;-168;-24;-83
130142;1;3;0;153;3867;174;-1842;-161;-56;-90
130152;1;3;0;153;3874;183;-1855;-142;-62;-86
130162;1;3;0;153;3888;184;-1856;-136;-49;-74
130172;1;3;0;153;3895;190;-1840;-128;-18;-69
130182;1;3;0;153;3881;189;-1834;-156;-5;-87
130192;1;3;0;153;3855;175;-1826;-179;8;-92
130202;1;3;0;153;3875;175;-1823;-175;15;-98
130212;1;3;0;153;3882;169;-1826;-180;2;-98
130222;1;3;0;153;3894;183;-1812;-175;-18;-110
130232;1;3;0;153;3889;181;-1831;-160;-44;-90
130242;1;3;0;153;3879;176;-1810;-151;-47;-86
130252;1;3;0;153;3889;176;-1817;-147;-46;-76
130262;1;3;0;153;3863;177;-1803;-147;-65;-66
130272;1;3;0;153;3869;186;-1815;-164;-70;-68
130282;1;3;0;153;3884;191;-1802;-162;-75;-76
130292;1;3;0;153;3894;177;-1804;-168;-76;-76
130302;1;3;0;153;3884;191;-1809;-155;-86;-87
130312;1;3;0;153;3876;207;-1823;-145;-93;-73
130322;1;3;0;153;3892;192;-1813;-142;-84;-69
130332;1;3;0;153;3909;209;-1815;-146;-66;-70
130342;1;3;0;153;3915;201;-1803;-151;-60;-89
130352;1;3;0;153;3865;199;-1779;-167;-43;-103
130362;1;3;0;153;3863;182;-1807;-174;-7;-120
130372;1;3;0;153;3868;152;-1825;-164;-29;-89
130382;1;3;0;153;3836;159;-1832;-152;-42;-68
130392;1;3;0;153;3883;182;-1840;-134;-51;-49
130402;1;3;0;153;3917;211;-1835;-130;-51;-59
130412;1;3;0;153;3902;201;-1817;-157;-45;-79
130422;1;3;0;154;3895;191;-1814;-169;-44;-104
130432;1;3;0;154;3852;175;-1780;-174;-67;-112
130442;1;3;0;154;3813;150;-1785;-141;-52;-97
130452;1;3;0;154;3822;155;-1830;-118;-19;-70
130462;1;3;0;154;3870;167;-1842;-114;14;-46
130472;1;3;0;154;3935;171;-1857;-124;20;-43
130482;1;3;0;154;3985;182;-1864;-157;38;-104
130492;1;3;0;154;3945;193;-1809;-196;54;-184
130502;1;3;0;154;3890;183;-1799;-217;95;-249
130512;1;3;0;154;3802;201;-1784;-225;92;-241
130522;1;3;0;154;3805;187;-1791;-193;42;-129
130532;1;3;0;154;3811;182;-1779;-151;20;-56
130542;1;3;0;154;3867;195;-1778;-114;-4;-4
130552;1;3;0;154;3914;204;-1784;-114;-45;9
130562;1;3;0;154;3977;195;-1794;-137;-72;-20
130572;1;3;0;154;3947;174;-1795;-165;-23;-101
130582;1;3;0;154;3913;178;-1778;-182;4;-159
130592;1;3;0;154;3889;178;-1789;-159;-30;-147
130602;1;3;0;154;3865;202;-1797;-146;-10;-123
130612;1;3;0;154;3873;237;-1791;-130;-22;-103
130622;1;3;0;154;3860;244;-1772;-119;-36;-75
130632;1;3;0;154;3870;217;-1766;-145;-66;-54
130642;1;3;0;154;3880;193;-1768;-154;-81;-50
130652;1;3;0;154;3912;163;-1783;-176;-83;-64
130662;1;3;0;154;3918;149;-1817;-179;10;-123
130672;1;3;0;154;3924;179;-1806;-197;-5;-135
130682;1;3;0;154;3898;170;-1833;-175;-13;-117
130692;1;3;0;154;3875;189;-1811;-153;-10;-112
130702;1;3;0;154;3882;210;-1802;-149;-19;-78
130712;1;3;0;154;3883;224;-1762;-144;-45;-91
130722;1;3;0;154;3862;209;-1756;-162;-89;-90
130732;1;3;0;154;3879;186;-1745;-170;-110;-78
130742;1;3;0;154;3872;173;-1798;-161;-20;-100
130752;1;3;0;154;3877;171;-1811;-144;-14;-82
130762;1;3;0;154;3925;183;-1830;-125;-24;-64
130772;1;3;0;154;3919;204;-1800;-137;-15;-79
130782;1;3;0;154;3909;219;-1773;-153;-15;-97
130792;1;3;0;154;3888;213;-1725;-155;-32;-109
130802;1;3;0;154;3865;204;-1731;-167;-13;-141
130812;1;3;0;154;3859;185;-1739;-165;-36;-126
130822;1;3;0;154;3877;174;-1776;-175;-63;-95
130832;1;3;0;154;3891;184;-1815;-172;-49;-83
130842;1;3;0;154;3916;189;-1811;-166;-39;-75
130852;1;3;0;154;3919;194;-1803;-168;-31;-90
130862;1;3;0;154;3923;211;-1776;-169;-22;-116
130872;1;3;0;154;3914;205;-1763;-171;-4;-139
130882;1;3;0;154;3893;201;-1775;-171;7;-149
130892;1;3;0;154;3883;211;-1783;-163;0;-127
130902;1;3;0;154;3874;222;-1774;-155;-11;-102
130912;1;3;0;154;3861;210;-1770;-166;-31;-87
130922;1;3;0;155;3862;202;-1770;-130;-17;-72
130932;1;3;0;155;3880;209;-1753;-130;-46;-48
130942;1;3;0;155;3901;187;-1759;-135;-72;-39
130952;1;3;0;155;3917;190;-1758;-138;-55;-54
130962;1;3;0;155;3942;193;-1779;-154;-32;-93
130972;1;3;0;155;3941;186;-1761;-158;33;-154
130982;1;3;0;155;3925;220;-1768;-161;-13;-133
130992;1;3;0;155;3911;217;-1768;-164;-23;-143
131002;1;3;0;155;3885;220;-1766;-175;-32;-130
131012;1;3;0;155;3896;216;-1751;-172;-58;-115
131022;1;3;0;155;3882;224;-1758;-166;-96;-109
131032;1;3;0;155;3890;235;-1768;-157;-97;-84
131042;1;3;0;155;3930;197;-1771;-141;-103;-52
131052;1;3;0;155;3910;175;-1764;-146;-88;-60
131062;1;3;0;155;3889;191;-1778;-144;-95;-71
131072;1;3;0;155;3907;175;-1791;-153;-84;-51
131082;1;3;0;155;3891;172;-1788;-150;-105;-48
131092;1;3;0;155;3891;190;-1773;-153;-98;-72
131102;1;3;0;155;3937;229;-1748;-140;-99;-94
131112;1;3;0;155;3915;250;-1729;-142;-102;-97
131122;1;3;0;155;3916;232;-1742;-148;-95;-105
131132;1;3;0;155;3888;212;-1790;-164;-106;-125
131142;1;3;0;155;3863;194;-1806;-153;-121;-109
131152;1;3;0;155;3886;187;-1818;-138;-126;-77
131162;1;3;0;155;3906;207;-1790;-126;-113;-47
131172;1;3;0;155;3915;186;-1753;-117;-103;-43
131182;1;3;0;155;3926;211;-1743;-131;-122;-63
131192;1;3;0;155;3932;198;-1738;-138;-122;-77
131202;1;3;0;155;3911;199;-1773;-144;-128;-98
131212;1;3;0;155;3902;207;-1785;-152;-145;-94
131222;1;3;0;155;3889;211;-1768;-142;-157;-77
131232;1;3;0;155;3893;196;-1770;-128;-153;-53
131242;1;3;0;155;3882;204;-1759;-116;-155;-34
131252;1;3;0;155;3895;197;-1764;-117;-169;-28
131262;1;3;0;155;3903;204;-1751;-111;-164;-37
131272;1;3;0;155;3919;198;-1757;-123;-174;-47
131282;1;3;0;155;3909;199;-1765;-141;-176;-69
131292;1;3;0;155;3903;197;-1778;-144;-189;-72
131302;1;3;0;155;3898;202;-1785;-144;-175;-62
131312;1;3;0;155;3879;198;-1791;-125;-165;-58
131322;1;3;0;155;3887;221;-1781;-103;-188;-31
131332;1;3;0;155;3893;215;-1784;-110;-182;-13
131342;1;3;0;155;3938;217;-1782;-104;-181;-8
131352;1;3;0;155;3926;207;-1762;-120;-178;-27
131362;1;3;0;155;3911;202;-1772;-151;-182;-48
131372;1;3;0;155;3899;174;-1799;-154;-184;-72
131382;1;3;0;155;3865;181;-1791;-151;-197;-84
131392;1;3;0;155;3859;207;-1785;-120;-223;-54
131402;1;3;0;155;3843;217;-1813;-80;-388;96
131412;1;3;0;155;3857;238;-1757;-72;-330;91
131422;1;3;0;156;3896;195;-1779;-85;-290;69
131432;1;3;0;156;3892;167;-1756;-100;-259;10
131442;1;3;0;156;3917;180;-1786;-102;-273;-1
131452;1;3;0;156;3916;180;-1797;-112;-256;-6
131462;1;3;0;156;3905;192;-1820;-130;-182;-29
131472;1;3;0;156;3900;202;-1801;-139;-166;-31
131482;1;3;0;156;3886;203;-1790;-142;-198;-24
131492;1;3;0;156;3880;205;-1809;-135;-233;-16
131502;1;3;0;156;3883;194;-1818;-124;-252;-8
131512;1;3;0;156;3862;193;-1813;-109;-268;7
131522;1;3;0;156;3869;207;-1782;-89;-286;43
131532;1;3;0;156;3900;183;-1801;-95;-266;25
131542;1;3;0;156;3918;163;-1814;-101;-227;-14
131552;1;3;0;156;3909;171;-1828;-116;-207;-45
131562;1;3;0;156;3878;166;-1836;-131;-187;-65
131572;1;3;0;156;3856;169;-1820;-138;-180;-43
131582;1;3;0;156;3853;186;-1818;-104;-192;-17
131592;1;3;0;156;3863;188;-1796;-93;-209;9
131602;1;3;0;156;3872;191;-1788;-80;-220;13
131612;1;3;0;156;3911;202;-1808;-74;-206;7
131622;1;3;0;156;3892;183;-1808;-97;-200;-9
131632;1;3;0;156;3872;186;-1819;-94;-210;-11
131642;1;3;0;156;3854;193;-1825;-103;-202;-11
131652;1;3;0;156;3858;174;-1810;-108;-204;0
131662;1;3;0;156;3854;186;-1814;-119;-195;1
131672;1;3;0;156;3872;183;-1822;-122;-211;-1
131682;1;3;0;156;3874;188;-1794;-130;-196;-11
131692;1;3;0;156;3875;166;-1802;-133;-181;-15
131702;1;3;0;156;3888;156;-1823;-140;-174;-41
131712;1;3;0;156;3868;170;-1847;-139;-174;-46
131722;1;3;0;156;3852;165;-1843;-130;-169;-44
131732;1;3;0;156;3864;165;-1854;-142;-185;-46
131742;1;3;0;156;3862;171;-1846;-125;-246;12
131752;1;3;0;156;3876;184;-1827;-91;-307;106
131762;1;3;0;156;3898;164;-1826;-103;-214;39
131772;1;3;0;156;3881;170;-1827;-119;-167;-28
131782;1;3;0;156;3878;167;-1842;-136;-179;-57
131792;1;3;0;156;3850;177;-1840;-143;-154;-57
131802;1;3;0;156;3816;176;-1826;-160;-198;-15
131812;1;3;0;156;3855;182;-1848;-118;-184;8
131822;1;3;0;156;3857;187;-1832;-95;-160;2
131832;1;3;0;156;3858;163;-1807;-76;-160;8
131842;1;3;0;156;3871;172;-1793;-79;-166;6
131852;1;3;0;156;3886;159;-1811;-99;-160;-20
131862;1;3;0;156;3879;153;-1851;-118;-147;-51
131872;1;3;0;156;3861;138;-1834;-137;-132;-65
131882;1;3;0;156;3839;157;-1832;-133;-125;-62
131892;1;3;0;156;3851;165;-1837;-132;-138;-59
131902;1;3;0;156;3856;182;-1832;-127;-132;-54
131912;1;3;0;156;3854;165;-1818;-111;-146;-53
131922;1;3;0;157;3856;170;-1810;-129;-140;-61
131932;1;3;0;157;3876;154;-1840;-139;-134;-71
131942;1;3;0;157;3878;165;-1833;-151;-109;-76
131952;1;3;0;157;3871;153;-1855;-160;-69;-86
131962;1;3;0;157;3861;157;-1863;-159;-56;-81
131972;1;3;0;157;3844;160;-1854;-154;-55;-72
131982;1;3;0;157;3856;168;-1840;-151;-62;-70
131992;1;3;0;157;3883;150;-1819;-142;-79;-73
132002;1;3;0;157;3864;171;-1835;-141;-106;-84
132012;1;3;0;157;3888;183;-1857;-142;-77;-80
132022;1;3;0;157;3898;179;-1865;-153;-76;-82
132032;1;3;0;157;3863;151;-1850;-172;-41;-79
132042;1;3;0;157;3832;158;-1835;-173;-12;-78
132052;1;3;0;157;3866;173;-1839;-153;-40;-51
132062;1;3;0;157;3851;155;-1831;-139;-84;-36
132072;1;3;0;157;3884;165;-1813;-126;-101;-63
132082;1;3;0;157;3882;171;-1822;-125;-118;-74
132092;1;3;0;157;3891;184;-1849;-132;-107;-81
132102;1;3;0;157;3863;170;-1849;-166;-68;-84
132112;1;3;0;157;3830;151;-1865;-172;-51;-72
132122;1;3;0;157;3852;159;-1863;-189;-41;-88
132132;1;3;0;157;3867;153;-1853;-168;-63;-83
132142;1;3;0;157;3894;177;-1835;-152;-83;-69
132152;1;3;0;157;3862;178;-1839;-127;-83;-64
132162;1;3;0;157;3849;184;-1841;-129;-90;-63
132172;1;3;0;157;3872;162;-1837;-133;-65;-70
132182;1;3;0;157;3877;166;-1834;-159;-63;-76
132192;1;3;0;157;3867;150;-1830;-150;-57;-76
132202;1;3;0;157;3843;159;-1844;-161;-52;-65
132212;1;3;0;157;3867;158;-1850;-155;-58;-53
132222;1;3;0;157;3878;152;-1821;-148;-75;-52
132232;1;3;0;157;3884;166;-1824;-143;-56;-60
132242;1;3;0;157;3884;166;-1834;-146;-46;-79
132252;1;3;0;157;3873;180;-1833;-155;-26;-86
132262;1;3;0;157;3863;182;-1832;-176;-9;-46
132272;1;3;0;157;3856;158;-1852;-169;-20;-43
132282;1;3;0;157;3864;162;-1825;-168;-14;-67
132292;1;3;0;157;3866;155;-1842;-163;-46;-59
132302;1;3;0;157;3886;176;-1813;-174;-73;-33
132312;1;3;0;157;3879;180;-1826;-175;-80;0
132322;1;3;0;157;3898;170;-1841;-176;-57;10
132332;1;3;0;157;3888;165;-1837;-172;-37;-32
132342;1;3;0;157;3873;153;-1843;-196;-17;-47
132352;1;3;0;157;3877;136;-1838;-206;-14;-68
132362;1;3;0;157;3873;132;-1841;-202;-21;-91
132372;1;3;0;157;3855;156;-1836;-171;-39;-82
132382;1;3;0;157;3881;186;-1817;-149;-40;-72
132392;1;3;0;157;3877;194;-1822;-144;-40;-63
132402;1;3;0;157;3863;172;-1773;-148;-61;-56
132412;1;3;0;157;3892;153;-1786;-145;-113;-60
132423;1;3;0;158;3920;171;-1833;-151;-114;-78
132433;1;3;0;158;3876;178;-1827;-148;-89;-80
132443;1;3;0;158;3890;177;-1855;-165;-57;-85
132453;1;3;0;158;3881;159;-1845;-169;-59;-95
132463;1;3;0;158;3883;160;-1833;-177;-58;-106
132473;1;3;0;158;3852;163;-1835;-163;-67;-82
132483;1;3;0;158;3854;174;-1826;-162;-43;-70
132493;1;3;0;158;3885;181;-1846;-150;-24;-54
132503;1;3;0;158;3864;161;-1806;-161;-44;-60
132513;1;3;0;158;3875;175;-1816;-164;-79;-72
132523;1;3;0;158;3883;165;-1836;-172;-93;-57
132533;1;3;0;158;3870;136;-1847;-165;-71;-67
132543;1;3;0;158;3864;160;-1823;-173;-53;-77
132553;1;3;0;158;3891;171;-1831;-168;-53;-83
132563;1;3;0;158;3903;156;-1821;-195;-43;-107
132573;1;3;0;158;3884;149;-1808;-196;-28;-124
132583;1;3;0;158;3873;176;-1808;-198;1;-125
132593;1;3;0;158;3867;174;-1817;-183;7;-99
132603;1;3;0;158;3866;184;-1820;-178;34;-107
132613;1;3;0;158;3882;170;-1818;-160;39;-112
132623;1;3;0;158;3882;170;-1824;-175;61;-120
132633;1;3;0;158;3875;155;-1833;-189;62;-153
132643;1;3;0;158;3877;164;-1790;-187;77;-195
132653;1;3;0;158;3874;161;-1787;-205;7;-161
132663;1;3;0;158;3877;184;-1799;-206;14;-162
132673;1;3;0;158;3877;191;-1798;-202;37;-175
132683;1;3;0;158;3898;186;-1805;-178;133;-213
132693;1;3;0;158;3894;165;-1821;-185;91;-158
132703;1;3;0;158;3869;163;-1793;-191;142;-187
132713;1;3;0;158;3869;173;-1815;-194;185;-212
132723;1;3;0;158;3871;179;-1787;-213;222;-250
132733;1;3;0;158;3873;200;-1777;-225;218;-265
132743;1;3;0;158;3868;188;-1808;-250;284;-283
132753;1;3;0;158;3882;178;-1758;-317;313;-357
132763;1;3;0;158;3886;223;-1740;-234;282;-286
132773;1;3;0;158;3929;215;-1782;-245;260;-244
132783;1;3;0;158;3896;181;-1772;-221;254;-290
132793;1;3;0;158;3895;210;-1758;-210;246;-320
132803;1;3;0;158;3881;198;-1758;-220;222;-281
132813;1;3;0;158;3858;204;-1746;-220;192;-271
132823;1;3;0;158;3893;217;-1744;-189;79;-189
132833;1;3;0;158;3932;192;-1796;-185;117;-180
132843;1;3;0;158;3923;208;-1785;-186;194;-205
132853;1;3;0;158;3938;214;-1780;-196;183;-191
132863;1;3;0;158;3919;199;-1767;-208;265;-247
132873;1;3;0;158;3910;191;-1767;-223;252;-280
132883;1;3;0;158;3885;207;-1759;-223;159;-244
132893;1;3;0;158;3899;237;-1732;-234;95;-194
132903;1;3;0;158;3891;245;-1740;-243;74;-141
132913;1;3;0;158;3876;236;-1761;-232;72;-85
132922;1;3;0;159;3895;255;-1755;-214;63;-45
132932;1;3;0;159;3912;224;-1740;-208;99;-50
132942;1;3;0;159;3923;202;-1721;-208;138;-45
132952;1;3;0;159;3958;193;-1709;-219;140;-105
132962;1;3;0;159;3976;201;-1708;-246;126;-179
132972;1;3;0;159;3963;191;-1710;-250;95;-267
132982;1;3;0;159;3954;261;-1735;-201;94;-324
132992;1;3;0;159;3914;249;-1735;-253;27;-301
133002;1;3;0;159;3942;222;-1755;-214;43;-288
133012;1;3;0;159;3904;246;-1730;-189;-10;-205
133022;1;3;0;159;3905;246;-1699;-175;-47;-132
133032;1;3;0;159;3909;240;-1684;-161;-55;-86
133042;1;3;0;159;3929;247;-1712;-169;-52;-78
133052;1;3;0;159;3927;264;-1737;-201;-42;-118
133062;1;3;0;159;3942;244;-1713;-206;-22;-105
133072;1;3;0;159;3948;225;-1710;-241;8;-160
133082;1;3;0;159;3912;210;-1693;-251;-2;-202
133092;1;3;0;159;3905;240;-1718;-229;-11;-194
133102;1;3;0;159;3927;244;-1734;-187;-42;-127
133112;1;3;0;159;3916;219;-1733;-170;-52;-83
133122;1;3;0;159;3915;239;-1720;-150;-41;-89
133132;1;3;0;159;3925;249;-1716;-143;-44;-85
133142;1;3;0;159;3938;270;-1700;-164;-27;-101
133152;1;3;0;159;3931;249;-1688;-182;76;-218
133162;1;3;0;159;3896;239;-1719;-186;-18;-132
133172;1;3;0;159;3916;249;-1748;-168;-71;-73
133182;1;3;0;159;3949;251;-1746;-140;-68;-43
133192;1;3;0;159;3937;249;-1721;-139;-52;-48
133202;1;3;0;159;3931;263;-1698;-185;-13;-80
133212;1;3;0;159;3931;244;-1687;-234;50;-202
133222;1;3;0;159;3920;269;-1692;-227;52;-167
133232;1;3;0;159;3907;274;-1713;-239;27;-150
133242;1;3;0;159;3933;263;-1708;-196;13;-100
133252;1;3;0;159;3945;250;-1713;-167;13;-57
133262;1;3;0;159;3928;243;-1702;-144;-2;-41
133272;1;3;0;159;3924;240;-1666;-149;-1;-48
133282;1;3;0;159;3934;243;-1680;-158;-27;-66
133292;1;3;0;159;3941;248;-1690;-183;-34;-97
133302;1;3;0;159;3926;245;-1693;-196;-46;-134
133312;1;3;0;159;3916;252;-1693;-230;-36;-170
133322;1;3;0;159;3923;257;-1693;-209;-27;-164
133332;1;3;0;159;3923;263;-1713;-179;-39;-118
133342;1;3;0;159;3909;272;-1702;-163;-56;-75
133352;1;3;0;159;3935;269;-1691;-160;-57;-76
133362;1;3;0;159;3930;260;-1694;-161;-58;-55
133372;1;3;0;159;3929;255;-1685;-157;-53;-57
133382;1;3;0;159;3950;257;-1683;-156;-46;-70
133392;1;3;0;159;3942;255;-1708;-186;-22;-105
133402;1;3;0;159;3940;239;-1690;-192;-32;-129
133412;1;3;0;159;3926;263;-1678;-182;-57;-105
133423;1;3;0;160;3917;271;-1698;-160;-66;-73
133433;1;3;0;160;3937;285;-1709;-151;-67;-73
133443;1;3;0;160;3930;266;-1693;-160;-62;-46
133453;1;3;0;160;3931;254;-1688;-165;-57;-43
133463;1;3;0;160;3946;248;-1669;-149;-85;-59
133473;1;3;0;160;3965;259;-1680;-160;-102;-72
133483;1;3;0;160;3945;270;-1699;-157;-99;-69
133493;1;3;0;160;3939;270;-1706;-158;-109;-76
133503;1;3;0;160;3909;252;-1691;-166;-101;-72
133513;1;3;0;160;3917;264;-1676;-147;-104;-71
133523;1;3;0;160;3935;259;-1664;-138;-111;-75
133533;1;3;0;160;3937;258;-1686;-146;-103;-76
133543;1;3;0;160;3919;255;-1693;-148;-102;-61
133553;1;3;0;160;3936;260;-1681;-137;-128;-54
133563;1;3;0;160;3948;261;-1717;-137;-129;-54
133573;1;3;0;160;3947;243;-1704;-133;-135;-56
133583;1;3;0;160;3939;267;-1716;-125;-148;-34
133593;1;3;0;160;3947;253;-1698;-127;-140;-30
133603;1;3;0;160;3957;249;-1693;-128;-159;-56
133613;1;3;0;160;3932;247;-1691;-134;-188;-70
133623;1;3;0;160;3912;269;-1703;-139;-193;-66
133633;1;3;0;160;3910;274;-1711;-123;-207;-35
133643;1;3;0;160;3929;277;-1712;-124;-202;-15
133653;1;3;0;160;3920;260;-1694;-132;-242;-6
133663;1;3;0;160;3931;252;-1686;-106;-308;21
133673;1;3;0;160;3950;254;-1661;-115;-285;-3
133683;1;3;0;160;3948;245;-1689;-108;-271;-55
133693;1;3;0;160;3937;258;-1694;-127;-278;-81
133703;1;3;0;160;3930;260;-1700;-126;-322;-58
133713;1;3;0;160;3925;244;-1721;-126;-296;-48
133723;1;3;0;160;3935;267;-1734;-124;-272;-15
133733;1;3;0;160;3910;262;-1750;-109;-302;19
133743;1;3;0;160;3891;251;-1718;-116;-317;47
133753;1;3;0;160;3929;257;-1705;-100;-401;89
133763;1;3;0;160;3932;237;-1700;-104;-360;42
133773;1;3;0;160;3938;262;-1683;-93;-324;10
133783;1;3;0;160;3964;236;-1738;-90;-448;48
133793;1;3;0;160;3914;232;-1729;-112;-272;-50
133803;1;3;0;160;3895;243;-1720;-140;-266;-47
133813;1;3;0;160;3897;229;-1743;-136;-233;-35
133823;1;3;0;160;3896;237;-1739;-133;-245;-14
133833;1;3;0;160;3904;250;-1720;-131;-388;62
133843;1;3;0;160;3937;252;-1736;-126;-415;94
133853;1;3;0;160;3918;251;-1735;-124;-391;123
133863;1;3;0;160;3930;220;-1780;-119;-291;65
133873;1;3;0;160;3882;251;-1756;-119;-234;62
133883;1;3;0;160;3893;224;-1757;-130;-249;68
133893;1;3;0;160;3926;215;-1724;-153;-261;57
133903;1;3;0;160;3913;242;-1723;-146;-271;20
133913;1;3;0;160;3927;224;-1748;-152;-306;-4
133922;1;3;0;161;3909;232;-1738;-144;-334;-20
133932;1;3;0;161;3874;231;-1763;-140;-270;-41
133942;1;3;0;161;3874;250;-1764;-132;-213;-29
133952;1;3;0;161;3888;244;-1768;-127;-191;-4
133962;1;3;0;161;3891;238;-1761;-114;-231;37
133972;1;3;0;161;3930;219;-1776;-114;-301;84
133982;1;3;0;161;3904;213;-1733;-124;-344;66
133992;1;3;0;161;3967;184;-1803;-104;-504;131
134002;1;3;0;161;3922;205;-1778;-124;-314;-39
134012;1;3;0;161;3895;218;-1759;-137;-384;3
134022;1;3;0;161;3883;201;-1763;-122;-375;13
134032;1;3;0;161;3882;214;-1779;-107;-304;-48
134042;1;3;0;161;3880;223;-1780;-105;-328;-17
134052;1;3;0;161;3835;279;-1728;-109;-379;32
134062;1;3;0;161;3907;232;-1810;-99;-319;50
134072;1;3;0;161;3872;214;-1782;-111;-269;32
134082;1;3;0;161;3907;204;-1816;-108;-337;86
134092;1;3;0;161;3885;218;-1790;-129;-255;19
134102;1;3;0;161;3903;206;-1793;-143;-277;2
134112;1;3;0;161;3882;213;-1782;-146;-249;-47
134122;1;3;0;161;3870;214;-1791;-154;-294;-41
134132;1;3;0;161;3851;253;-1793;-149;-380;12
134142;1;3;0;161;3889;232;-1829;-123;-387;72
134152;1;3;0;161;3924;213;-1829;-120;-297;54
134162;1;3;0;161;3884;214;-1804;-139;-233;7
134172;1;3;0;161;3879;209;-1793;-147;-173;-22
134182;1;3;0;161;3901;199;-1823;-149;-145;-10
134192;1;3;0;161;3880;176;-1829;-144;-161;-24
134202;1;3;0;161;3862;205;-1804;-127;-169;-42
134212;1;3;0;161;3876;211;-1801;-121;-197;-30
134222;1;3;0;161;3878;210;-1816;-112;-234;1
134232;1;3;0;161;3894;214;-1815;-134;-294;38
134242;1;3;0;161;3890;202;-1823;-149;-320;-12
134252;1;3;0;161;3911;182;-1878;-115;-440;-24
134262;1;3;0;161;3897;210;-1833;-108;-361;-33
134272;1;3;0;161;3868;201;-1844;-104;-317;-12
134282;1;3;0;161;3828;200;-1820;-92;-266;-17
134292;1;3;0;161;3830;201;-1792;-79;-255;6
134302;1;3;0;161;3860;205;-1827;-67;-218;14
134312;1;3;0;161;3879;195;-1806;-80;-213;22
134322;1;3;0;161;3901;197;-1808;-82;-186;11
134332;1;3;0;161;3891;179;-1826;-115;-169;-17
134342;1;3;0;161;3884;168;-1841;-117;-194;-31
134352;1;3;0;161;3876;175;-1836;-122;-248;0
134362;1;3;0;161;3879;169;-1841;-121;-268;-9
134372;1;3;0;161;3884;199;-1838;-110;-240;-27
134382;1;3;0;161;3881;193;-1850;-113;-249;-32
134392;1;3;0;161;3873;208;-1831;-124;-235;-19
134402;1;3;0;161;3857;195;-1842;-119;-219;-56
134412;1;3;0;161;3829;193;-1818;-123;-219;-43
134422;1;3;0;162;3811;211;-1833;-114;-212;-31
134432;1;3;0;162;3827;225;-1845;-115;-188;-6
134442;1;3;0;162;3857;214;-1845;-105;-178;19
134452;1;3;0;162;3867;196;-1826;-90;-159;17
134462;1;3;0;162;3896;180;-1839;-106;-142;5
134472;1;3;0;162;3874;173;-1840;-117;-128;-14
134482;1;3;0;162;3882;161;-1847;-124;-130;-34
134492;1;3;0;162;3871;162;-1839;-142;-136;-72
134502;1;3;0;162;3854;179;-1847;-133;-145;-95
134512;1;3;0;162;3841;204;-1835;-124;-153;-81
134522;1;3;0;162;3842;206;-1844;-127;-149;-72
134532;1;3;0;162;3826;206;-1828;-109;-141;-62
134542;1;3;0;162;3832;190;-1822;-105;-138;-60
134552;1;3;0;162;3868;186;-1822;-107;-159;-69
134562;1;3;0;162;3867;182;-1859;-126;-129;-81
134572;1;3;0;162;3884;174;-1884;-133;-105;-78
134582;1;3;0;162;3854;171;-1896;-144;-91;-74
134592;1;3;0;162;3848;176;-1889;-133;-87;-86
134602;1;3;0;162;3835;176;-1868;-137;-73;-80
134612;1;3;0;162;3832;200;-1846;-129;-76;-50
134622;1;3;0;162;3830;190;-1824;-133;-78;-37
134632;1;3;0;162;3868;181;-1828;-137;-86;-35
134642;1;3;0;162;3866;174;-1830;-133;-99;-45
134652;1;3;0;162;3850;159;-1864;-132;-105;-64
134662;1;3;0;162;3858;173;-1869;-137;-97;-77
134672;1;3;0;162;3859;191;-1868;-133;-104;-84
134682;1;3;0;162;3850;187;-1848;-129;-111;-86
134692;1;3;0;162;3866;188;-1844;-117;-121;-82
134702;1;3;0;162;3848;183;-1832;-117;-134;-68
134712;1;3;0;162;3863;205;-1851;-126;-124;-67
134722;1;3;0;162;3870;197;-1851;-120;-134;-62
134732;1;3;0;162;3854;167;-1848;-134;-126;-46
134742;1;3;0;162;3859;176;-1863;-139;-126;-60
134752;1;3;0;162;3883;191;-1869;-153;-120;-80
134762;1;3;0;162;3891;206;-1849;-177;-104;-100
134772;1;3;0;162;3902;210;-1857;-181;-77;-124
134782;1;3;0;162;3899;201;-1867;-185;-37;-132
134792;1;3;0;162;3843;193;-1859;-186;-11;-125
134802;1;3;0;162;3826;145;-1857;-181;-28;-111
134812;1;3;0;162;3840;152;-1839;-165;-52;-103
134822;1;3;0;162;3841;175;-1853;-160;-77;-107
134832;1;3;0;162;3859;195;-1857;-156;-59;-117
134842;1;3;0;162;3841;185;-1877;-162;-58;-119
134852;1;3;0;162;3830;199;-1832;-154;-55;-120
134862;1;3;0;162;3851;190;-1831;-146;-65;-109
134872;1;3;0;162;3872;195;-1852;-148;-57;-98
134882;1;3;0;162;3859;192;-1865;-152;-60;-97
134892;1;3;0;162;3864;199;-1866;-148;-59;-74
134902;1;3;0;162;3869;191;-1888;-138;-62;-81
134912;1;3;0;162;3867;201;-1861;-142;-53;-94
134922;1;3;0;163;3869;217;-1824;-127;-59;-80
134932;1;3;0;163;3849;195;-1817;-142;-48;-80
134942;1;3;0;163;3851;198;-1820;-151;-35;-87
134952;1;3;0;163;3866;176;-1846;-148;-24;-83
134962;1;3;0;163;3863;162;-1834;-162;-11;-76
134972;1;3;0;163;3875;169;-1838;-163;-8;-94
134982;1;3;0;163;3871;190;-1880;-173;-12;-133
134992;1;3;0;163;3856;203;-1869;-169;-31;-153
135002;1;3;0;163;3867;206;-1863;-173;-32;-158
135012;1;3;0;163;3887;204;-1869;-155;-33;-149
135022;1;3;0;163;3864;181;-1864;-153;-15;-146
135032;1;3;0;163;3846;178;-1827;-139;-17;-144
135042;1;3;0;163;3848;183;-1845;-119;-51;-132
135052;1;3;0;163;3829;179;-1800;-107;-63;-101
135062;1;3;0;163;3842;178;-1799;-107;-52;-103
135072;1;3;0;163;3890;189;-1816;-93;-46;-121
135082;1;3;0;163;3894;181;-1854;-104;-17;-126
135092;1;3;0;163;3869;180;-1872;-131;26;-145
135102;1;3;0;163;3875;188;-1862;-163;54;-152
135112;1;3;0;163;3881;200;-1863;-177;63;-145
135122;1;3;0;163;3873;192;-1857;-190;62;-122
135132;1;3;0;163;3836;195;-1860;-197;33;-120
135142;1;3;0;163;3846;215;-1872;-185;19;-105
135152;1;3;0;163;3857;214;-1852;-159;-5;-72
135162;1;3;0;163;3859;222;-1841;-139;-10;-38
135172;1;3;0;163;3876;220;-1821;-134;4;-25
135182;1;3;0;163;3881;197;-1800;-138;37;-46
135192;1;3;0;163;3878;177;-1809;-170;42;-89
135202;1;3;0;163;3888;196;-1823;-185;50;-107
135212;1;3;0;163;3894;210;-1795;-177;45;-97
135222;1;3;0;163;3903;213;-1797;-169;29;-93
135232;1;3;0;163;3903;237;-1787;-146;-10;-82
135242;1;3;0;163;3895;224;-1795;-148;-27;-73
135252;1;3;0;163;3892;194;-1777;-138;-62;-81
135262;1;3;0;163;3894;180;-1794;-158;-85;-112
135272;1;3;0;163;3870;197;-1786;-156;-108;-131
135282;1;3;0;163;3856;184;-1813;-152;-91;-130
135292;1;3;0;163;3853;215;-1823;-159;-85;-140
135302;1;3;0;163;3849;236;-1820;-156;-57;-111
135312;1;3;0;163;3860;229;-1806;-154;-41;-85
135322;1;3;0;163;3879;212;-1821;-145;-36;-63
135332;1;3;0;163;3906;210;-1823;-154;-26;-50
135342;1;3;0;163;3919;184;-1849;-173;-15;-75
135352;1;3;0;163;3890;178;-1833;-179;-40;-116
135362;1;3;0;163;3859;215;-1829;-187;-46;-150
135372;1;3;0;163;3852;220;-1821;-173;-66;-144
135382;1;3;0;163;3849;214;-1803;-169;-65;-124
135392;1;3;0;163;3852;212;-1796;-148;-70;-97
135402;1;3;0;163;3897;220;-1789;-143;-49;-76
135412;1;3;0;163;3910;182;-1802;-150;-30;-84
135422;1;3;0;164;3898;184;-1818;-156;-40;-109
135432;1;3;0;164;3909;190;-1828;-164;-43;-132
135442;1;3;0;164;3880;192;-1812;-157;-67;-143
135452;1;3;0;164;3844;216;-1840;-163;-68;-141
135462;1;3;0;164;3843;234;-1839;-162;-33;-110
135472;1;3;0;164;3840;253;-1831;-149;16;-55
135482;1;3;0;164;3890;242;-1789;-145;11;-3
135492;1;3;0;164;3920;204;-1768;-152;7;-21
135502;1;3;0;164;3912;170;-1790;-173;-9;-91
135512;1;3;0;164;3906;168;-1816;-195;-7;-147
135522;1;3;0;164;3910;190;-1833;-196;-6;-187
135532;1;3;0;164;3876;214;-1839;-190;30;-206
135542;1;3;0;164;3867;241;-1803;-177;83;-218
135552;1;3;0;164;3877;230;-1790;-161;50;-169
135562;1;3;0;164;3874;212;-1807;-168;47;-145
135572;1;3;0;164;3883;214;-1792;-170;47;-127
135582;1;3;0;164;3877;199;-1795;-173;12;-124
135592;1;3;0;164;3876;202;-1803;-171;1;-143
135602;1;3;0;164;3868;215;-1817;-160;-17;-159
135612;1;3;0;164;3854;231;-1813;-148;-13;-155
135622;1;3;0;164;3870;245;-1790;-150;-18;-123
135632;1;3;0;164;3883;234;-1776;-161;-4;-111
135642;1;3;0;164;3891;225;-1794;-183;9;-111
135652;1;3;0;164;3906;229;-1794;-198;25;-117
135662;1;3;0;164;3898;224;-1807;-206;30;-118
135672;1;3;0;164;3880;229;-1796;-204;18;-110
135682;1;3;0;164;3876;226;-1797;-188;10;-102
135692;1;3;0;164;3883;241;-1775;-175;-15;-93
135702;1;3;0;164;3884;247;-1761;-154;-43;-86
135712;1;3;0;164;3898;255;-1747;-141;-58;-85
135722;1;3;0;164;3921;244;-1742;-151;-75;-90
135732;1;3;0;164;3913;232;-1774;-158;-52;-115
135742;1;3;0;164;3914;215;-1786;-172;-48;-119
135752;1;3;0;164;3884;193;-1781;-173;-50;-126
135762;1;3;0;164;3863;224;-1782;-171;-59;-137
135772;1;3;0;164;3877;259;-1756;-159;-71;-152
135782;1;3;0;164;3900;260;-1717;-154;55;-232
135792;1;3;0;164;3902;265;-1744;-161;-54;-167
135802;1;3;0;164;3891;239;-1760;-161;-80;-138
135812;1;3;0;164;3886;218;-1779;-172;-106;-113
135822;1;3;0;164;3897;216;-1808;-187;-115;-104
135832;1;3;0;164;3891;221;-1809;-188;-112;-93
135842;1;3;0;164;3913;218;-1828;-192;-97;-95
135852;1;3;0;164;3924;188;-1886;-189;12;-158
135862;1;3;0;164;3868;238;-1822;-185;14;-158
135872;1;3;0;164;3860;229;-1811;-175;8;-118
135882;1;3;0;164;3873;221;-1815;-185;25;-78
135892;1;3;0;164;3868;201;-1828;-178;23;-74
135902;1;3;0;164;3889;206;-1819;-182;40;-111
135912;1;3;0;164;3891;234;-1780;-183;46;-130
135922;1;3;0;165;3903;222;-1794;-176;104;-172
135932;1;3;0;165;3887;270;-1732;-171;59;-146
135942;1;3;0;165;3916;272;-1714;-171;25;-141
135952;1;3;0;165;3929;296;-1719;-166;7;-139
135962;1;3;0;165;3940;293;-1720;-160;-29;-110
135972;1;3;0;165;3921;242;-1728;-182;-72;-91
135982;1;3;0;165;3885;261;-1733;-194;-70;-92
135992;1;3;0;165;3905;260;-1768;-177;-58;-70
136002;1;3;0;165;3897;242;-1755;-166;-65;-34
136012;1;3;0;165;3909;244;-1732;-160;-71;-43
136022;1;3;0;165;3933;269;-1715;-141;-70;-69
136032;1;3;0;165;3928;278;-1732;-129;-78;-79
136042;1;3;0;165;3896;254;-1722;-125;-106;-72
136052;1;3;0;165;3881;238;-1771;-136;-131;-81
136062;1;3;0;165;3878;229;-1768;-137;-161;-107
136072;1;3;0;165;3892;231;-1780;-121;-167;-124
136082;1;3;0;165;3892;241;-1803;-92;-153;-134
136092;1;3;0;165;3882;247;-1798;-93;-118;-114
136102;1;3;0;165;3866;254;-1801;-101;-43;-102
136112;1;3;0;165;3876;235;-1836;-119;49;-85
136122;1;3;0;165;3873;242;-1766;-150;48;-55
136132;1;3;0;165;3901;229;-1757;-157;16;-33
136142;1;3;0;165;3891;208;-1775;-167;5;-47
136152;1;3;0;165;3882;226;-1754;-160;3;-71
136162;1;3;0;165;3900;249;-1732;-147;-17;-73
136172;1;3;0;165;3923;273;-1719;-142;-27;-66
136182;1;3;0;165;3917;268;-1738;-134;-19;-52
136192;1;3;0;165;3927;251;-1745;-156;-11;-32
136202;1;3;0;165;3907;250;-1753;-176;-17;-33
136212;1;3;0;165;3894;232;-1758;-167;-31;-43
136222;1;3;0;165;3906;254;-1706;-169;-56;-54
136232;1;3;0;165;3898;260;-1708;-151;-85;-51
136242;1;3;0;165;3924;267;-1720;-129;-103;-34
136252;1;3;0;165;3936;278;-1736;-130;-110;-34
136262;1;3;0;165;3943;259;-1769;-135;-94;-47
136272;1;3;0;165;3922;247;-1805;-152;-72;-60
136282;1;3;0;165;3887;243;-1813;-171;-52;-59
136292;1;3;0;165;3852;226;-1779;-171;-69;-53
136302;1;3;0;165;3871;202;-1760;-165;-99;-50
136312;1;3;0;165;3887;206;-1764;-148;-125;-57
136322;1;3;0;165;3904;234;-1783;-126;-111;-81
136332;1;3;0;165;3911;252;-1818;-116;-70;-70
136342;1;3;0;165;3905;232;-1818;-131;-44;-68
136352;1;3;0;165;3895;210;-1798;-133;-42;-71
136362;1;3;0;165;3901;213;-1776;-134;-50;-74
136372;1;3;0;165;3905;215;-1781;-127;-61;-94
136382;1;3;0;165;3893;242;-1746;-113;-75;-92
136392;1;3;0;165;3894;261;-1706;-118;-61;-73
136402;1;3;0;165;3900;289;-1741;-124;-19;-61
136412;1;3;0;165;3907;275;-1759;-125;-18;-7
136423;1;3;0;166;3921;257;-1749;-126;2;17
136433;1;3;0;166;3929;207;-1727;-139;-5;21
136443;1;3;0;166;3934;192;-1711;-160;-40;-12
136453;1;3;0;166;3924;211;-1730;-148;-75;-38
136463;1;3;0;166;3923;210;-1730;-126;-108;-61
136473;1;3;0;166;3927;264;-1758;-124;-119;-82
136483;1;3;0;166;3927;273;-1763;-114;-122;-81
136493;1;3;0;166;3923;252;-1754;-106;-110;-67
136503;1;3;0;166;3910;243;-1750;-122;-99;-63
136513;1;3;0;166;3897;235;-1728;-113;-118;-66
136523;1;3;0;166;3886;248;-1741;-93;-141;-54
136533;1;3;0;166;3905;275;-1702;-86;-165;-57
136543;1;3;0;166;3917;295;-1720;-80;-170;-64
136553;1;3;0;166;3915;288;-1723;-77;-143;-46
136563;1;3;0;166;3920;267;-1741;-92;-118;-17
136573;1;3;0;166;3917;230;-1762;-96;-107;-4
136583;1;3;0;166;3912;227;-1757;-107;-113;-23
136593;1;3;0;166;3915;214;-1759;-106;-135;-50
136603;1;3;0;166;3874;214;-1766;-122;-161;-82
136613;1;3;0;166;3874;214;-1766;-123;-180;-90
136623;1;3;0;166;3888;228;-1774;-114;-197;-77
136633;1;3;0;166;3893;247;-1784;-90;-192;-48
136643;1;3;0;166;3895;231;-1777;-99;-182;-28
136653;1;3;0;166;3913;234;-1808;-104;-152;-25
136663;1;3;0;166;3899;228;-1788;-109;-141;-28
136673;1;3;0;166;3863;231;-1773;-104;-127;-23
136683;1;3;0;166;3851;224;-1765;-116;-134;-9
136693;1;3;0;166;3860;237;-1719;-100;-163;1
136703;1;3;0;166;3899;275;-1711;-108;-176;20
136713;1;3;0;166;3948;264;-1724;-117;-233;53
136723;1;3;0;166;3958;255;-1757;-125;-240;62
136733;1;3;0;166;3926;243;-1782;-145;-171;26
136743;1;3;0;166;3905;219;-1765;-144;-140;6
136753;1;3;0;166;3897;215;-1760;-146;-136;-6
136763;1;3;0;166;3914;234;-1762;-129;-148;-4
136773;1;3;0;166;3905;237;-1734;-117;-165;-10
136783;1;3;0;166;3923;238;-1747;-112;-164;-23
136793;1;3;0;166;3942;212;-1741;-127;-152;-52
136803;1;3;0;166;3901;206;-1780;-135;-144;-74
136813;1;3;0;166;3882;192;-1792;-142;-146;-75
136823;1;3;0;166;3871;205;-1786;-131;-170;-87
136833;1;3;0;166;3882;213;-1784;-109;-182;-78
136843;1;3;0;166;3886;233;-1778;-103;-174;-59
136853;1;3;0;166;3903;231;-1778;-95;-167;-38
136863;1;3;0;166;3901;233;-1763;-102;-175;-12
136873;1;3;0;166;3928;189;-1806;-116;-217;26
136883;1;3;0;166;3888;195;-1768;-117;-125;-42
136893;1;3;0;166;3866;218;-1757;-121;-114;-70
136903;1;3;0;166;3887;238;-1758;-130;-105;-74
136913;1;3;0;166;3894;233;-1763;-122;-104;-67
136923;1;3;0;167;3894;252;-1789;-113;-90;-62
136933;1;3;0;167;3914;236;-1772;-119;-91;-38
136943;1;3;0;167;3910;208;-1759;-126;-111;-32
136953;1;3;0;167;3873;204;-1739;-129;-125;-57
136963;1;3;0;167;3879;226;-1734;-126;-121;-53
136973;1;3;0;167;3891;231;-1736;-128;-130;-46
136983;1;3;0;167;3898;233;-1736;-129;-108;-58
136993;1;3;0;167;3915;238;-1757;-128;-73;-66
137003;1;3;0;167;3915;247;-1754;-120;-51;-46
137013;1;3;0;167;3893;210;-1752;-140;-48;-26
137023;1;3;0;167;3891;192;-1787;-154;-61;-42
137033;1;3;0;167;3883;186;-1822;-169;-66;-76
137043;1;3;0;167;3883;213;-1823;-169;-76;-84
137053;1;3;0;167;3887;235;-1807;-146;-82;-62
137063;1;3;0;167;3871;241;-1782;-126;-71;-48
137073;1;3;0;167;3860;244;-1778;-136;-51;-30
137083;1;3;0;167;3881;223;-1753;-148;-31;-11
137093;1;3;0;167;3889;215;-1756;-160;-6;-9
137103;1;3;0;167;3911;186;-1767;-156;-11;-26
137113;1;3;0;167;3905;213;-1736;-146;-57;-60
137123;1;3;0;167;3909;247;-1734;-143;-63;-81
137133;1;3;0;167;3914;240;-1722;-150;-42;-72
137143;1;3;0;167;3906;225;-1739;-162;-21;-58
137153;1;3;0;167;3905;216;-1744;-194;-15;-37
137163;1;3;0;167;3904;222;-1749;-194;-20;-26
137173;1;3;0;167;3919;193;-1754;-190;-48;-40
137183;1;3;0;167;3922;199;-1760;-178;-74;-72
137193;1;3;0;167;3938;197;-1806;-175;-94;-106
137203;1;3;0;167;3909;210;-1808;-164;-106;-139
137213;1;3;0;167;3882;214;-1817;-164;-109;-150
137223;1;3;0;167;3883;225;-1790;-172;-95;-144
137233;1;3;0;167;3867;233;-1784;-166;-80;-125
137243;1;3;0;167;3886;231;-1767;-160;-49;-87
137253;1;3;0;167;3891;200;-1758;-141;-31;-60
137263;1;3;0;167;3879;209;-1763;-136;-9;-64
137273;1;3;0;167;3920;193;-1805;-147;0;-67
137283;1;3;0;167;3924;207;-1780;-143;6;-89
137293;1;3;0;167;3902;238;-1768;-163;27;-118
137303;1;3;0;167;3912;254;-1746;-180;62;-105
137313;1;3;0;167;3897;239;-1743;-197;78;-83
137323;1;3;0;167;3876;218;-1741;-194;56;-59
137333;1;3;0;167;3890;196;-1722;-177;22;-27
137343;1;3;0;167;3902;193;-1746;-176;-2;-28
137353;1;3;0;167;3915;216;-1729;-203;-11;-71
137363;1;3;0;167;3958;239;-1746;-227;20;-112
137373;1;3;0;167;3950;241;-1749;-226;3;-119
137383;1;3;0;167;3930;234;-1762;-206;-13;-122
137393;1;3;0;167;3904;228;-1751;-199;-42;-114
137403;1;3;0;167;3868;217;-1737;-184;-70;-101
137413;1;3;0;167;3895;231;-1753;-175;-77;-69
137422;1;3;0;168;3911;225;-1741;-163;-80;-59
137432;1;3;0;168;3911;211;-1739;-167;-69;-63
137442;1;3;0;168;3933;215;-1757;-149;-46;-82
137452;1;3;0;168;3918;220;-1750;-166;-5;-103
137462;1;3;0;168;3904;232;-1768;-191;36;-106
137472;1;3;0;168;3878;216;-1768;-193;56;-87
137482;1;3;0;168;3873;227;-1732;-194;39;-56
137492;1;3;0;168;3906;227;-1720;-192;-7;-47
137502;1;3;0;168;3939;231;-1736;-182;-17;-54
137512;1;3;0;168;3931;216;-1738;-175;-18;-68
137522;1;3;0;168;3937;228;-1767;-169;-25;-67
137532;1;3;0;168;3948;233;-1752;-185;-14;-82
137542;1;3;0;168;3923;214;-1761;-201;-4;-100
137552;1;3;0;168;3907;227;-1741;-203;-14;-117
137562;1;3;0;168;3904;238;-1735;-200;-29;-131
137572;1;3;0;168;3868;233;-1726;-190;-6;-133
137582;1;3;0;168;3871;233;-1711;-180;11;-105
137592;1;3;0;168;3893;249;-1712;-153;-24;-61
137602;1;3;0;168;3912;227;-1695;-140;-31;-53
137612;1;3;0;168;3965;242;-1715;-152;-2;-71
137622;1;3;0;168;3973;243;-1727;-190;29;-102
137632;1;3;0;168;3936;226;-1731;-196;38;-122
137642;1;3;0;168;3937;226;-1726;-207;38;-119
137652;1;3;0;168;3918;201;-1694;-215;9;-159
137662;1;3;0;168;3920;207;-1729;-203;21;-216
137672;1;3;0;168;3899;229;-1723;-178;-13;-208
137682;1;3;0;168;3905;238;-1770;-156;-21;-184
137692;1;3;0;168;3913;260;-1753;-160;33;-188
137702;1;3;0;168;3926;263;-1739;-157;5;-157
137712;1;3;0;168;3895;252;-1714;-157;14;-148
137722;1;3;0;168;3896;250;-1688;-144;-47;-114
137732;1;3;0;168;3922;266;-1674;-141;-63;-110
137742;1;3;0;168;3921;252;-1701;-141;-66;-104
137752;1;3;0;168;3953;257;-1711;-154;-34;-95
137762;1;3;0;168;3959;248;-1739;-183;27;-93
137772;1;3;0;168;3928;231;-1724;-195;47;-92
137782;1;3;0;168;3902;208;-1731;-228;45;-119
137792;1;3;0;168;3912;201;-1744;-211;107;-209
137802;1;3;0;168;3878;238;-1699;-186;25;-180
137812;1;3;0;168;3915;276;-1723;-179;-22;-148
137822;1;3;0;168;3943;272;-1723;-166;-23;-119
137832;1;3;0;168;3923;259;-1742;-161;-1;-109
137842;1;3;0;168;3933;251;-1737;-165;20;-102
137852;1;3;0;168;3928;247;-1732;-177;10;-81
137862;1;3;0;168;3916;219;-1717;-180;25;-87
137872;1;3;0;168;3900;236;-1670;-178;30;-128
137882;1;3;0;168;3917;263;-1659;-170;-4;-115
137892;1;3;0;168;3941;254;-1680;-171;-17;-83
137902;1;3;0;168;3937;238;-1688;-170;-12;-82
137912;1;3;0;168;3932;250;-1712;-159;-31;-85
