timestamp;subject_id;activity;label;seq;ax;ay;az;gx;gy;gz
242337;1;3;0;374;3867;324;-1767;-204;22;-86
242347;1;3;0;374;3869;345;-1773;-175;24;-88
242357;1;3;0;374;3890;337;-1762;-151;28;-100
242367;1;3;0;374;3916;330;-1768;-176;48;-124
242377;1;3;0;374;3900;299;-1777;-205;87;-123
242387;1;3;0;374;3930;291;-1819;-226;83;-131
242397;1;3;0;374;3927;298;-1783;-257;64;-131
242407;1;3;0;374;3891;310;-1777;-242;59;-111
242417;1;3;0;374;3900;337;-1758;-227;39;-90
242427;1;3;0;374;3896;347;-1750;-199;-1;-91
242437;1;3;0;374;3885;348;-1745;-168;-13;-84
242447;1;3;0;374;3907;334;-1746;-169;14;-79
242457;1;3;0;374;3917;333;-1761;-183;8;-86
242467;1;3;0;374;3908;315;-1764;-187;-15;-86
242477;1;3;0;374;3901;308;-1789;-180;-24;-75
242487;1;3;0;374;3890;314;-1784;-180;-40;-66
242497;1;3;0;374;3906;331;-1765;-170;-59;-64
242507;1;3;0;374;3902;340;-1741;-182;-52;-85
242517;1;3;0;374;3899;344;-1744;-188;-38;-118
242527;1;3;0;374;3871;352;-1758;-196;-15;-122
242537;1;3;0;374;3884;349;-1760;-210;-9;-115
242547;1;3;0;374;3883;302;-1770;-206;-44;-112
242557;1;3;0;374;3892;301;-1784;-204;-54;-102
242567;1;3;0;374;3892;316;-1762;-181;-70;-87
242577;1;3;0;374;3887;333;-1749;-174;-49;-80
242587;1;3;0;374;3932;329;-1773;-180;-32;-74
242597;1;3;0;374;3937;332;-1759;-194;-30;-97
242607;1;3;0;374;3894;334;-1756;-209;-19;-129
242617;1;3;0;374;3907;344;-1772;-216;14;-132
242627;1;3;0;374;3885;337;-1772;-234;52;-127
242637;1;3;0;374;3876;331;-1753;-201;13;-106
242647;1;3;0;374;3892;335;-1757;-172;-28;-80
242657;1;3;0;374;3912;336;-1752;-153;-46;-53
242667;1;3;0;374;3925;333;-1749;-167;-60;-65
242677;1;3;0;374;3922;339;-1733;-172;-75;-65
242687;1;3;0;374;3906;329;-1742;-187;-80;-61
242697;1;3;0;374;3876;324;-1745;-182;-71;-46
242707;1;3;0;374;3886;346;-1730;-177;-66;-51
242717;1;3;0;374;3883;345;-1745;-170;-82;-59
242727;1;3;0;374;3909;341;-1737;-146;-98;-74
242737;1;3;0;374;3909;333;-1752;-165;-73;-97
242747;1;3;0;374;3898;334;-1740;-178;-37;-109
242757;1;3;0;374;3889;333;-1749;-200;-25;-120
242767;1;3;0;374;3897;336;-1757;-219;-14;-147
242777;1;3;0;374;3889;343;-1734;-225;-10;-150
242787;1;3;0;374;3901;346;-1738;-191;-24;-135
242797;1;3;0;374;3916;345;-1747;-176;-23;-136
242807;1;3;0;374;3920;338;-1753;-176;-28;-133
242817;1;3;0;374;3929;355;-1760;-200;-37;-144
242827;1;3;0;374;3914;337;-1743;-223;-47;-141
242837;1;3;0;375;3898;330;-1743;-213;-75;-115
242847;1;3;0;375;3895;341;-1725;-200;-82;-80
242857;1;3;0;375;3877;362;-1737;-163;-84;-58
242867;1;3;0;375;3900;370;-1734;-135;-86;-45
242877;1;3;0;375;3913;358;-1727;-118;-100;-43
242887;1;3;0;375;3909;354;-1751;-130;-96;-44
242897;1;3;0;375;3921;330;-1750;-154;-93;-52
242907;1;3;0;375;3919;320;-1737;-170;-105;-57
242917;1;3;0;375;3916;327;-1731;-175;-113;-54
242927;1;3;0;375;3917;348;-1712;-185;-116;-67
242937;1;3;0;375;3885;354;-1735;-165;-109;-82
242947;1;3;0;375;3883;343;-1733;-155;-108;-88
242957;1;3;0;375;3891;349;-1735;-159;-97;-83
242967;1;3;0;375;3895;364;-1741;-165;-91;-88
242977;1;3;0;375;3900;345;-1736;-169;-98;-88
242987;1;3;0;375;3918;331;-1742;-170;-95;-95
242997;1;3;0;375;3910;342;-1768;-174;-84;-106
243007;1;3;0;375;3886;350;-1743;-182;-76;-106
243017;1;3;0;375;3913;347;-1750;-177;-71;-104
243027;1;3;0;375;3899;358;-1736;-171;-75;-102
243037;1;3;0;375;3906;372;-1745;-156;-81;-89
243047;1;3;0;375;3910;360;-1732;-146;-85;-84
243057;1;3;0;375;3910;353;-1711;-137;-93;-82
243067;1;3;0;375;3906;352;-1749;-141;-99;-79
243077;1;3;0;375;3917;333;-1747;-144;-102;-65
243087;1;3;0;375;3901;322;-1742;-156;-116;-68
243097;1;3;0;375;3897;336;-1738;-153;-115;-57
243107;1;3;0;375;3898;357;-1733;-145;-102;-57
243117;1;3;0;375;3884;368;-1726;-144;-103;-76
243127;1;3;0;375;3906;353;-1723;-143;-100;-96
243137;1;3;0;375;3893;348;-1726;-149;-75;-88
243147;1;3;0;375;3907;346;-1748;-154;-89;-75
243157;1;3;0;375;3918;355;-1726;-163;-100;-78
243167;1;3;0;375;3892;346;-1745;-154;-100;-67
243177;1;3;0;375;3905;343;-1722;-162;-98;-75
243187;1;3;0;375;3910;363;-1709;-155;-98;-80
243197;1;3;0;375;3907;353;-1754;-149;-103;-83
243207;1;3;0;375;3909;353;-1747;-136;-115;-101
243217;1;3;0;375;3890;357;-1749;-156;-98;-103
243227;1;3;0;375;3892;348;-1747;-154;-91;-88
243237;1;3;0;375;3914;343;-1760;-151;-107;-72
243247;1;3;0;375;3900;339;-1753;-146;-123;-58
243257;1;3;0;375;3905;347;-1752;-140;-140;-63
243267;1;3;0;375;3909;348;-1742;-149;-150;-63
243277;1;3;0;375;3911;352;-1753;-145;-152;-83
243287;1;3;0;375;3918;341;-1735;-151;-158;-98
243297;1;3;0;375;3926;350;-1731;-156;-153;-109
243307;1;3;0;375;3909;357;-1753;-149;-163;-119
243317;1;3;0;375;3896;351;-1742;-146;-174;-118
243327;1;3;0;375;3909;341;-1757;-137;-184;-124
243337;1;3;0;376;3917;361;-1767;-119;-213;-123
243347;1;3;0;376;3903;370;-1760;-105;-232;-100
243357;1;3;0;376;3923;363;-1752;-100;-264;-68
243367;1;3;0;376;3922;337;-1744;-105;-291;-60
243377;1;3;0;376;3909;344;-1752;-108;-294;-72
243387;1;3;0;376;3888;362;-1764;-79;-282;-52
243397;1;3;0;376;3897;358;-1771;-74;-272;-7
243407;1;3;0;376;3899;339;-1752;-51;-279;8
243417;1;3;0;376;3886;362;-1744;-27;-277;4
243427;1;3;0;376;3855;369;-1764;-31;-247;18
243437;1;3;0;376;3869;351;-1771;-42;-224;41
243447;1;3;0;376;3880;330;-1759;-54;-257;40
243457;1;3;0;376;3880;329;-1781;-72;-277;20
243467;1;3;0;376;3896;360;-1783;-57;-270;7
243477;1;3;0;376;3875;361;-1776;-46;-249;-2
243487;1;3;0;376;3866;352;-1780;-46;-218;-18
243497;1;3;0;376;3886;340;-1759;-54;-203;-24
243507;1;3;0;376;3884;323;-1759;-77;-197;-28
243517;1;3;0;376;3883;321;-1739;-81;-202;-26
243527;1;3;0;376;3892;324;-1754;-88;-195;-20
243537;1;3;0;376;3889;334;-1757;-92;-210;-30
243547;1;3;0;376;3890;319;-1787;-84;-217;-50
243557;1;3;0;376;3891;345;-1796;-77;-199;-67
243567;1;3;0;376;3893;347;-1780;-72;-207;-77
243577;1;3;0;376;3897;351;-1768;-84;-210;-81
243587;1;3;0;376;3897;339;-1773;-86;-206;-66
243597;1;3;0;376;3892;318;-1769;-94;-222;-47
243607;1;3;0;376;3891;339;-1783;-96;-230;-42
243617;1;3;0;376;3875;337;-1785;-91;-226;-36
243627;1;3;0;376;3879;330;-1782;-83;-219;-33
243637;1;3;0;376;3874;328;-1777;-66;-229;-29
243647;1;3;0;376;3877;330;-1777;-72;-235;-34
243657;1;3;0;376;3869;321;-1801;-75;-242;-37
243667;1;3;0;376;3867;332;-1773;-79;-242;-50
243677;1;3;0;376;3866;350;-1798;-89;-233;-62
243687;1;3;0;376;3886;337;-1803;-101;-221;-68
243697;1;3;0;376;3881;325;-1789;-113;-220;-92
243707;1;3;0;376;3886;339;-1818;-124;-202;-127
243717;1;3;0;376;3849;362;-1813;-125;-158;-115
243727;1;3;0;376;3866;346;-1795;-118;-158;-76
243737;1;3;0;376;3859;310;-1790;-103;-183;-46
243747;1;3;0;376;3872;312;-1810;-97;-184;-42
243757;1;3;0;376;3883;306;-1794;-93;-185;-47
243767;1;3;0;376;3869;333;-1798;-85;-200;-37
243777;1;3;0;376;3856;348;-1796;-73;-205;-34
243787;1;3;0;376;3887;349;-1787;-82;-205;-28
243797;1;3;0;376;3872;333;-1793;-84;-199;-34
243807;1;3;0;376;3877;306;-1814;-107;-187;-38
243817;1;3;0;376;3883;316;-1836;-113;-179;-46
243827;1;3;0;376;3862;319;-1830;-110;-174;-39
243837;1;3;0;377;3851;333;-1826;-100;-176;-14
243847;1;3;0;377;3860;345;-1801;-85;-192;3
243857;1;3;0;377;3852;336;-1801;-58;-204;4
243867;1;3;0;377;3880;317;-1799;-63;-215;3
243877;1;3;0;377;3875;306;-1821;-74;-230;1
243887;1;3;0;377;3868;309;-1824;-81;-229;-8
243897;1;3;0;377;3867;299;-1820;-100;-226;-29
243907;1;3;0;377;3864;312;-1809;-98;-221;-37
243917;1;3;0;377;3836;335;-1808;-87;-197;-58
243927;1;3;0;377;3842;338;-1814;-78;-181;-47
243937;1;3;0;377;3865;323;-1808;-72;-178;-27
243947;1;3;0;377;3876;317;-1831;-72;-168;-31
243957;1;3;0;377;3888;314;-1841;-82;-157;-53
243967;1;3;0;377;3867;313;-1842;-109;-139;-77
243977;1;3;0;377;3853;305;-1836;-121;-132;-88
243987;1;3;0;377;3857;314;-1809;-134;-132;-67
243997;1;3;0;377;3854;310;-1814;-130;-131;-39
244007;1;3;0;377;3842;315;-1808;-104;-126;-20
244017;1;3;0;377;3836;335;-1796;-82;-136;9
244027;1;3;0;377;3842;316;-1792;-53;-160;48
244037;1;3;0;377;3878;322;-1791;-13;-229;131
244047;1;3;0;377;3859;312;-1817;-46;-206;104
244057;1;3;0;377;3859;296;-1819;-82;-216;92
244067;1;3;0;377;3850;322;-1802;-103;-363;188
244077;1;3;0;377;3860;298;-1834;-121;-173;36
244087;1;3;0;377;3829;309;-1822;-126;-99;-25
244097;1;3;0;377;3825;311;-1807;-132;-74;-38
244107;1;3;0;377;3831;327;-1819;-114;-62;-17
244117;1;3;0;377;3856;302;-1820;-120;-47;-15
244127;1;3;0;377;3870;280;-1825;-129;-59;-28
244137;1;3;0;377;3871;269;-1839;-129;-75;-49
244147;1;3;0;377;3866;279;-1848;-155;-83;-67
244157;1;3;0;377;3883;289;-1842;-173;-85;-80
244167;1;3;0;377;3857;292;-1843;-182;-77;-92
244177;1;3;0;377;3846;307;-1839;-173;-76;-97
244187;1;3;0;377;3834;321;-1805;-168;-58;-97
244197;1;3;0;377;3838;330;-1823;-145;-51;-80
244207;1;3;0;377;3858;320;-1840;-133;-56;-76
244217;1;3;0;377;3872;302;-1842;-144;-54;-80
244227;1;3;0;377;3878;298;-1842;-145;-54;-64
244237;1;3;0;377;3882;286;-1826;-145;-67;-30
244247;1;3;0;377;3888;292;-1818;-147;-75;-25
244257;1;3;0;377;3867;303;-1810;-147;-88;-31
244267;1;3;0;377;3875;292;-1813;-143;-87;-36
244277;1;3;0;377;3881;284;-1814;-150;-92;-69
244287;1;3;0;377;3864;302;-1820;-164;-76;-96
244297;1;3;0;377;3866;299;-1838;-180;-47;-107
244307;1;3;0;377;3862;308;-1829;-186;-43;-102
244317;1;3;0;377;3836;291;-1832;-183;-45;-103
244327;1;3;0;377;3848;302;-1809;-168;-61;-89
244337;1;3;0;378;3861;301;-1825;-149;-67;-77
244347;1;3;0;378;3865;308;-1813;-139;-52;-84
244357;1;3;0;378;3882;294;-1844;-146;-37;-76
244367;1;3;0;378;3880;279;-1825;-176;-49;-87
244377;1;3;0;378;3856;299;-1816;-187;-43;-91
244387;1;3;0;378;3832;299;-1804;-193;-21;-67
244397;1;3;0;378;3826;289;-1801;-189;1;-40
244407;1;3;0;378;3846;311;-1788;-164;11;-45
244417;1;3;0;378;3851;320;-1808;-157;14;-73
244427;1;3;0;378;3846;322;-1800;-135;0;-60
244437;1;3;0;378;3875;304;-1831;-151;5;-53
244447;1;3;0;378;3883;299;-1846;-182;13;-75
244457;1;3;0;378;3896;288;-1852;-209;15;-110
244467;1;3;0;378;3878;322;-1828;-213;23;-116
244477;1;3;0;378;3855;319;-1806;-220;54;-123
244487;1;3;0;378;3836;312;-1802;-213;75;-109
244497;1;3;0;378;3835;294;-1784;-202;74;-89
244507;1;3;0;378;3839;302;-1804;-196;71;-72
244517;1;3;0;378;3868;311;-1800;-185;62;-55
244527;1;3;0;378;3899;292;-1799;-181;59;-70
244537;1;3;0;378;3907;280;-1826;-199;96;-111
244547;1;3;0;378;3902;284;-1814;-224;105;-124
244557;1;3;0;378;3891;293;-1814;-238;80;-126
244567;1;3;0;378;3866;299;-1790;-255;70;-140
244577;1;3;0;378;3845;330;-1786;-234;63;-136
244587;1;3;0;378;3866;336;-1779;-224;67;-124
244597;1;3;0;378;3863;317;-1788;-194;75;-114
244607;1;3;0;378;3881;318;-1810;-199;95;-129
244617;1;3;0;378;3908;307;-1800;-196;108;-144
244627;1;3;0;378;3890;318;-1784;-211;127;-168
244637;1;3;0;378;3898;312;-1804;-245;135;-183
244647;1;3;0;378;3893;308;-1803;-272;114;-197
244657;1;3;0;378;3879;309;-1774;-273;91;-206
244667;1;3;0;378;3879;333;-1784;-254;70;-186
244677;1;3;0;378;3875;337;-1788;-237;54;-144
244687;1;3;0;378;3883;319;-1778;-198;43;-117
244697;1;3;0;378;3898;321;-1772;-185;40;-109
244707;1;3;0;378;3889;319;-1787;-178;55;-119
244717;1;3;0;378;3885;321;-1795;-203;65;-116
244727;1;3;0;378;3902;323;-1780;-223;74;-107
244737;1;3;0;378;3903;304;-1775;-222;49;-92
244747;1;3;0;378;3896;326;-1760;-222;14;-84
244757;1;3;0;378;3885;332;-1762;-196;-8;-96
244767;1;3;0;378;3883;340;-1757;-196;21;-108
244777;1;3;0;378;3883;342;-1761;-197;55;-122
244787;1;3;0;378;3890;337;-1770;-229;78;-147
244797;1;3;0;378;3889;315;-1778;-241;81;-141
244807;1;3;0;378;3899;325;-1779;-241;82;-145
244817;1;3;0;378;3884;341;-1773;-253;84;-134
244827;1;3;0;378;3896;344;-1750;-222;51;-99
244837;1;3;0;379;3910;334;-1741;-191;23;-69
244847;1;3;0;379;3916;323;-1739;-187;14;-71
244857;1;3;0;379;3902;319;-1759;-199;17;-85
244867;1;3;0;379;3909;338;-1748;-215;70;-189
244877;1;3;0;379;3890;333;-1752;-222;46;-119
244887;1;3;0;379;3891;355;-1769;-230;50;-162
244897;1;3;0;379;3898;336;-1731;-226;27;-112
244907;1;3;0;379;3897;347;-1733;-207;28;-126
244917;1;3;0;379;3886;355;-1732;-196;19;-131
244927;1;3;0;379;3909;350;-1733;-191;42;-132
244937;1;3;0;379;3916;348;-1733;-212;49;-136
244947;1;3;0;379;3918;344;-1732;-227;42;-137
244957;1;3;0;379;3922;334;-1722;-216;20;-108
244967;1;3;0;379;3902;345;-1720;-208;30;-103
244977;1;3;0;379;3916;345;-1740;-203;21;-110
244987;1;3;0;379;3910;355;-1735;-198;8;-117
244997;1;3;0;379;3888;365;-1736;-212;27;-136
245007;1;3;0;379;3896;338;-1740;-235;52;-139
245017;1;3;0;379;3910;328;-1738;-236;32;-135
245027;1;3;0;379;3907;341;-1742;-217;-1;-116
245037;1;3;0;379;3899;355;-1732;-200;-4;-127
245047;1;3;0;379;3911;369;-1733;-196;10;-121
245057;1;3;0;379;3933;358;-1728;-191;5;-138
245067;1;3;0;379;3928;351;-1720;-202;-17;-159
245077;1;3;0;379;3914;339;-1728;-180;-32;-133
245087;1;3;0;379;3917;347;-1739;-192;-34;-118
245097;1;3;0;379;3907;346;-1727;-186;-48;-92
245107;1;3;0;379;3902;362;-1721;-179;-55;-71
245117;1;3;0;379;3916;366;-1711;-157;-58;-65
245127;1;3;0;379;3934;344;-1715;-160;-68;-69
245137;1;3;0;379;3919;362;-1740;-167;-74;-79
245147;1;3;0;379;3926;350;-1740;-176;-76;-80
245157;1;3;0;379;3909;352;-1704;-185;-72;-76
245167;1;3;0;379;3891;349;-1727;-194;-71;-76
245177;1;3;0;379;3908;358;-1712;-189;-70;-78
245187;1;3;0;379;3898;348;-1722;-162;-79;-73
245197;1;3;0;379;3897;364;-1696;-145;-63;-80
245207;1;3;0;379;3933;359;-1721;-151;-41;-93
245217;1;3;0;379;3920;353;-1712;-184;-34;-131
245227;1;3;0;379;3911;354;-1718;-216;-21;-165
245237;1;3;0;379;3908;364;-1733;-219;-28;-138
245247;1;3;0;379;3903;381;-1722;-221;-30;-120
245257;1;3;0;379;3903;355;-1707;-217;-24;-145
245267;1;3;0;379;3907;374;-1726;-196;-25;-126
245277;1;3;0;379;3916;362;-1720;-179;-27;-108
245287;1;3;0;379;3919;370;-1715;-172;-31;-103
245297;1;3;0;379;3913;361;-1705;-176;-29;-108
245307;1;3;0;379;3913;365;-1712;-181;-35;-111
245317;1;3;0;379;3906;365;-1710;-176;-52;-108
245327;1;3;0;379;3899;367;-1706;-177;-52;-99
245337;1;3;0;380;3904;364;-1715;-163;-49;-83
245347;1;3;0;380;3907;372;-1714;-160;-52;-79
245357;1;3;0;380;3938;365;-1692;-168;-52;-106
245367;1;3;0;380;3915;371;-1720;-172;-51;-119
245377;1;3;0;380;3914;363;-1720;-173;-58;-94
245387;1;3;0;380;3917;361;-1715;-177;-76;-64
245397;1;3;0;380;3919;356;-1702;-170;-96;-60
245407;1;3;0;380;3903;375;-1694;-151;-99;-63
245417;1;3;0;380;3889;394;-1705;-145;-85;-62
245427;1;3;0;380;3919;394;-1706;-151;-70;-70
245437;1;3;0;380;3935;381;-1701;-164;-54;-95
245447;1;3;0;380;3907;371;-1720;-175;-68;-101
245457;1;3;0;380;3907;372;-1709;-196;-44;-127
245467;1;3;0;380;3911;377;-1727;-217;-23;-142
245477;1;3;0;380;3904;362;-1708;-151;-44;-57
245487;1;3;0;380;3911;369;-1693;-141;-46;-31
245497;1;3;0;380;3931;355;-1693;-149;-49;-25
245507;1;3;0;380;3943;371;-1713;-139;-68;-41
245517;1;3;0;380;3932;366;-1686;-148;-81;-48
245527;1;3;0;380;3922;372;-1691;-143;-90;-59
245537;1;3;0;380;3903;373;-1696;-138;-101;-51
245547;1;3;0;380;3905;366;-1688;-132;-114;-32
245557;1;3;0;380;3904;374;-1674;-119;-132;-15
245567;1;3;0;380;3916;376;-1700;-114;-124;-8
245577;1;3;0;380;3943;369;-1712;-128;-108;-12
245587;1;3;0;380;3939;341;-1698;-126;-107;-30
245597;1;3;0;380;3919;350;-1717;-133;-122;-68
245607;1;3;0;380;3931;363;-1733;-151;-127;-94
245617;1;3;0;380;3924;359;-1718;-155;-142;-116
245627;1;3;0;380;3915;368;-1727;-154;-158;-127
245637;1;3;0;380;3926;376;-1719;-151;-180;-120
245647;1;3;0;380;3923;381;-1715;-137;-200;-112
245657;1;3;0;380;3929;382;-1730;-125;-233;-93
245667;1;3;0;380;3926;366;-1715;-100;-242;-82
245677;1;3;0;380;3944;362;-1723;-98;-261;-68
245687;1;3;0;380;3934;363;-1714;-96;-280;-86
245697;1;3;0;380;3921;365;-1719;-99;-288;-111
245707;1;3;0;380;3911;386;-1698;-90;-290;-114
245717;1;3;0;380;3911;381;-1719;-77;-282;-88
245727;1;3;0;380;3909;374;-1713;-79;-284;-75
245737;1;3;0;380;3902;360;-1721;-67;-307;-66
245747;1;3;0;380;3906;382;-1710;-59;-333;-56
245757;1;3;0;380;3912;377;-1734;-55;-332;-39
245767;1;3;0;380;3913;373;-1740;-49;-328;-13
245777;1;3;0;380;3912;381;-1747;-55;-310;-23
245787;1;3;0;380;3917;356;-1755;-72;-297;-53
245797;1;3;0;380;3905;363;-1762;-93;-281;-74
245807;1;3;0;380;3898;366;-1761;-114;-274;-82
245817;1;3;0;380;3894;362;-1744;-108;-273;-84
245827;1;3;0;380;3880;367;-1723;-87;-287;-55
245837;1;3;0;381;3896;368;-1728;-56;-313;-20
245847;1;3;0;381;3927;375;-1754;-29;-336;-8
245857;1;3;0;381;3913;347;-1739;-19;-348;-16
245867;1;3;0;381;3914;351;-1755;-36;-334;-29
245877;1;3;0;381;3906;361;-1769;-78;-311;-50
245887;1;3;0;381;3894;351;-1753;-98;-297;-53
245897;1;3;0;381;3869;364;-1750;-105;-277;-54
245907;1;3;0;381;3861;365;-1738;-96;-270;-46
245917;1;3;0;381;3871;372;-1738;-73;-279;-43
245927;1;3;0;381;3868;368;-1748;-49;-301;-30
245937;1;3;0;381;3888;369;-1758;-43;-309;-32
245947;1;3;0;381;3909;358;-1780;-49;-300;-40
245957;1;3;0;381;3905;344;-1786;-65;-290;-58
245967;1;3;0;381;3896;347;-1789;-95;-283;-71
245977;1;3;0;381;3867;333;-1799;-81;-317;-44
245987;1;3;0;381;3847;353;-1788;-54;-342;-3
245997;1;3;0;381;3875;356;-1764;-32;-362;20
246007;1;3;0;381;3882;357;-1762;-10;-373;31
246017;1;3;0;381;3880;379;-1743;-27;-344;-23
246027;1;3;0;381;3893;373;-1773;-44;-305;-57
246037;1;3;0;381;3892;353;-1802;-69;-280;-76
246047;1;3;0;381;3865;339;-1835;-95;-241;-104
246057;1;3;0;381;3885;327;-1836;-124;-226;-90
246067;1;3;0;381;3888;336;-1791;-119;-252;-77
246077;1;3;0;381;3879;358;-1784;-115;-277;-53
246087;1;3;0;381;3854;357;-1775;-95;-336;-21
246097;1;3;0;381;3887;361;-1808;-50;-414;78
246107;1;3;0;381;3875;349;-1827;-47;-353;52
246117;1;3;0;381;3868;355;-1842;-78;-280;10
246127;1;3;0;381;3864;324;-1826;-84;-243;-19
246137;1;3;0;381;3851;327;-1820;-98;-223;-43
246147;1;3;0;381;3878;360;-1806;-87;-218;-38
246157;1;3;0;381;3848;370;-1767;-86;-199;-51
246167;1;3;0;381;3845;358;-1773;-96;-200;-51
246177;1;3;0;381;3851;355;-1790;-95;-209;-48
246187;1;3;0;381;3845;336;-1806;-102;-199;-27
246197;1;3;0;381;3877;309;-1816;-106;-182;-4
246207;1;3;0;381;3860;316;-1815;-118;-153;7
246217;1;3;0;381;3835;322;-1828;-99;-139;4
246227;1;3;0;381;3849;358;-1816;-87;-149;29
246237;1;3;0;381;3858;359;-1787;-51;-179;51
246247;1;3;0;381;3839;372;-1740;-25;-178;60
246257;1;3;0;381;3850;346;-1768;-32;-153;64
246267;1;3;0;381;3858;315;-1762;-54;-132;50
246277;1;3;0;381;3841;307;-1829;-97;-123;14
246287;1;3;0;381;3853;311;-1855;-128;-105;-10
246297;1;3;0;381;3847;319;-1856;-135;-91;-12
246307;1;3;0;381;3837;351;-1832;-120;-94;-9
246317;1;3;0;381;3846;356;-1802;-94;-92;9
246327;1;3;0;381;3856;342;-1784;-82;-94;30
246337;1;3;0;382;3848;304;-1776;-71;-110;24
246347;1;3;0;382;3848;321;-1789;-73;-109;17
246357;1;3;0;382;3833;320;-1823;-66;-100;47
246367;1;3;0;382;3846;298;-1842;-85;-92;67
246377;1;3;0;382;3887;315;-1850;-86;-87;45
246387;1;3;0;382;3879;337;-1837;-95;-76;35
246397;1;3;0;382;3872;344;-1811;-100;-69;43
246407;1;3;0;382;3894;334;-1812;-122;-68;39
246417;1;3;0;382;3868;317;-1794;-116;-73;10
246427;1;3;0;382;3856;306;-1842;-120;-58;-18
246437;1;3;0;382;3868;326;-1879;-114;-39;-11
246447;1;3;0;382;3837;297;-1867;-113;-15;2
246457;1;3;0;382;3845;299;-1847;-107;-5;18
246467;1;3;0;382;3851;304;-1828;-127;9;31
246477;1;3;0;382;3873;313;-1812;-131;-1;36
246487;1;3;0;382;3880;302;-1789;-139;-22;22
246497;1;3;0;382;3870;295;-1792;-145;-43;-7
246507;1;3;0;382;3872;293;-1807;-136;-34;-22
246517;1;3;0;382;3865;281;-1817;-132;-25;-19
246527;1;3;0;382;3858;286;-1827;-135;6;-53
246537;1;3;0;382;3884;294;-1827;-150;22;-70
246547;1;3;0;382;3894;299;-1807;-158;28;-75
246557;1;3;0;382;3889;294;-1784;-173;18;-68
246567;1;3;0;382;3897;321;-1755;-174;7;-49
246577;1;3;0;382;3880;327;-1765;-157;10;-47
246587;1;3;0;382;3876;322;-1817;-148;24;-37
246597;1;3;0;382;3881;316;-1805;-137;14;-19
246607;1;3;0;382;3876;317;-1823;-114;16;-23
246617;1;3;0;382;3865;300;-1806;-116;26;-16
246627;1;3;0;382;3877;303;-1803;-117;9;-13
246637;1;3;0;382;3862;315;-1770;-160;6;-22
246647;1;3;0;382;3854;312;-1775;-188;11;-16
246657;1;3;0;382;3874;294;-1783;-187;-12;-5
246667;1;3;0;382;3886;287;-1802;-181;-25;-23
246677;1;3;0;382;3860;301;-1825;-171;11;-55
246687;1;3;0;382;3874;297;-1838;-153;40;-38
246697;1;3;0;382;3870;286;-1837;-156;78;-37
246707;1;3;0;382;3852;282;-1799;-177;106;-64
246717;1;3;0;382;3872;301;-1786;-204;112;-84
246727;1;3;0;382;3861;297;-1772;-205;106;-78
246737;1;3;0;382;3865;301;-1750;-195;133;-83
246747;1;3;0;382;3891;307;-1778;-188;163;-107
246757;1;3;0;382;3897;318;-1790;-165;177;-138
246767;1;3;0;382;3897;310;-1800;-182;204;-175
246777;1;3;0;382;3913;303;-1798;-205;183;-173
246787;1;3;0;382;3910;286;-1781;-227;137;-158
246797;1;3;0;382;3914;298;-1761;-269;98;-138
246807;1;3;0;382;3913;321;-1746;-267;69;-142
246817;1;3;0;382;3897;335;-1755;-247;73;-153
246827;1;3;0;382;3889;315;-1771;-228;105;-132
246837;1;3;0;383;3868;298;-1788;-223;115;-98
246847;1;3;0;383;3895;285;-1795;-237;117;-88
246857;1;3;0;383;3897;285;-1787;-213;88;-65
246867;1;3;0;383;3898;302;-1777;-188;60;-35
246877;1;3;0;383;3889;321;-1758;-172;44;-11
246887;1;3;0;383;3917;338;-1754;-151;32;12
246897;1;3;0;383;3937;325;-1740;-136;25;20
246907;1;3;0;383;3914;316;-1739;-137;39;-5
246917;1;3;0;383;3918;308;-1756;-148;50;-45
246927;1;3;0;383;3905;307;-1754;-165;51;-61
246937;1;3;0;383;3907;305;-1730;-171;51;-81
246947;1;3;0;383;3905;323;-1747;-203;74;-95
246957;1;3;0;383;3884;309;-1740;-214;85;-90
246967;1;3;0;383;3898;306;-1732;-225;65;-85
246977;1;3;0;383;3905;307;-1729;-214;57;-58
246987;1;3;0;383;3905;303;-1749;-194;40;-34
246997;1;3;0;383;3911;301;-1739;-160;47;-33
247007;1;3;0;383;3922;312;-1768;-147;39;-31
247017;1;3;0;383;3913;315;-1758;-143;46;-65
247027;1;3;0;383;3922;298;-1747;-145;41;-75
247037;1;3;0;383;3926;305;-1716;-156;25;-51
247047;1;3;0;383;3917;294;-1716;-154;6;-32
247057;1;3;0;383;3923;299;-1730;-150;-14;-32
247067;1;3;0;383;3909;294;-1722;-134;-32;-41
247077;1;3;0;383;3925;314;-1738;-134;-37;-60
247087;1;3;0;383;3915;320;-1731;-156;-15;-83
247097;1;3;0;383;3899;332;-1734;-165;38;-116
247107;1;3;0;383;3913;319;-1716;-174;61;-105
247117;1;3;0;383;3910;298;-1711;-172;30;-74
247127;1;3;0;383;3896;310;-1703;-156;7;-63
247137;1;3;0;383;3913;311;-1720;-144;-15;-61
247147;1;3;0;383;3936;336;-1725;-125;-16;-71
247157;1;3;0;383;3944;312;-1721;-138;7;-115
247167;1;3;0;383;3932;298;-1728;-167;33;-158
247177;1;3;0;383;3911;300;-1719;-186;8;-154
247187;1;3;0;383;3895;305;-1698;-194;-3;-137
247197;1;3;0;383;3903;304;-1701;-192;-27;-115
247207;1;3;0;383;3921;308;-1698;-183;-36;-115
247217;1;3;0;383;3920;328;-1726;-177;-33;-114
247227;1;3;0;383;3942;322;-1713;-168;-29;-104
247237;1;3;0;383;3959;294;-1731;-150;-51;-108
247247;1;3;0;383;3933;300;-1737;-157;-69;-115
247257;1;3;0;383;3927;306;-1737;-163;-85;-118
247267;1;3;0;383;3907;323;-1717;-163;-73;-85
247277;1;3;0;383;3904;331;-1720;-157;-58;-52
247287;1;3;0;383;3881;328;-1714;-151;-64;-30
247297;1;3;0;383;3896;314;-1712;-151;-64;-31
247307;1;3;0;383;3919;328;-1712;-155;-58;-39
247317;1;3;0;383;3921;316;-1710;-144;-39;-65
247327;1;3;0;383;3900;328;-1692;-151;-31;-79
247337;1;3;0;384;3910;323;-1690;-159;-37;-71
247347;1;3;0;384;3912;328;-1700;-161;-43;-55
247357;1;3;0;384;3919;319;-1694;-153;-52;-54
247367;1;3;0;384;3940;316;-1701;-142;-68;-47
247377;1;3;0;384;3917;303;-1701;-143;-85;-54
247387;1;3;0;384;3933;297;-1714;-152;-99;-54
247397;1;3;0;384;3958;286;-1693;-147;-130;-63
247407;1;3;0;384;3943;295;-1696;-146;-144;-83
247417;1;3;0;384;3920;331;-1696;-146;-143;-99
247427;1;3;0;384;3942;311;-1720;-146;-120;-119
247437;1;3;0;384;3942;319;-1742;-146;-120;-135
247447;1;3;0;384;3924;320;-1730;-149;-131;-154
247457;1;3;0;384;3942;317;-1724;-168;-136;-160
247467;1;3;0;384;3939;325;-1720;-155;-170;-143
247477;1;3;0;384;3937;324;-1721;-138;-209;-128
247487;1;3;0;384;3923;329;-1727;-122;-243;-106
247497;1;3;0;384;3913;337;-1730;-106;-269;-86
247507;1;3;0;384;3917;327;-1727;-96;-280;-62
247517;1;3;0;384;3913;330;-1727;-78;-307;-39
247527;1;3;0;384;3909;327;-1716;-73;-318;-35
247537;1;3;0;384;3925;311;-1710;-79;-338;-37
247547;1;3;0;384;3898;306;-1712;-80;-333;-67
247557;1;3;0;384;3887;334;-1732;-76;-316;-83
247567;1;3;0;384;3886;326;-1733;-84;-300;-64
247577;1;3;0;384;3902;327;-1735;-68;-320;-36
247587;1;3;0;384;3923;310;-1730;-68;-347;-41
247597;1;3;0;384;3938;333;-1741;-62;-344;-85
247607;1;3;0;384;3932;327;-1752;-61;-338;-104
247617;1;3;0;384;3914;328;-1760;-61;-282;-116
247627;1;3;0;384;3909;307;-1768;-87;-252;-127
247637;1;3;0;384;3880;291;-1745;-110;-277;-116
247647;1;3;0;384;3903;306;-1762;-112;-315;-90
247657;1;3;0;384;3907;307;-1730;-101;-342;-78
247667;1;3;0;384;3914;303;-1758;-101;-353;-90
247677;1;3;0;384;3907;314;-1763;-109;-342;-114
247687;1;3;0;384;3935;321;-1780;-123;-350;-151
247697;1;3;0;384;3895;319;-1786;-122;-326;-163
247707;1;3;0;384;3904;309;-1789;-145;-320;-168
247717;1;3;0;384;3907;335;-1775;-143;-320;-153
247727;1;3;0;384;3882;327;-1753;-147;-300;-127
247737;1;3;0;384;3867;333;-1746;-110;-327;-118
247747;1;3;0;384;3869;328;-1754;-83;-341;-119
247757;1;3;0;384;3878;324;-1782;-88;-310;-143
247767;1;3;0;384;3895;322;-1774;-63;-346;-113
247777;1;3;0;384;3907;322;-1768;-4;-384;-71
247787;1;3;0;384;3887;326;-1759;-27;-385;-73
247797;1;3;0;384;3900;317;-1757;-89;-324;-77
247807;1;3;0;384;3866;312;-1768;-88;-329;-55
247817;1;3;0;384;3868;309;-1774;-76;-343;-48
247827;1;3;0;384;3876;320;-1816;-77;-427;5
247837;1;3;0;385;3876;317;-1832;-77;-378;-31
247847;1;3;0;385;3870;320;-1847;-73;-340;-53
247857;1;3;0;385;3880;341;-1822;-64;-383;-46
247867;1;3;0;385;3867;325;-1809;-68;-368;-57
247877;1;3;0;385;3867;334;-1797;-77;-335;-71
247887;1;3;0;385;3845;330;-1803;-82;-326;-66
247897;1;3;0;385;3861;307;-1818;-92;-323;-63
247907;1;3;0;385;3848;299;-1848;-111;-318;-64
247917;1;3;0;385;3850;314;-1863;-112;-299;-47
247927;1;3;0;385;3873;316;-1846;-96;-298;-27
247937;1;3;0;385;3893;314;-1824;-72;-292;-21
247947;1;3;0;385;3863;307;-1781;-57;-292;-30
247957;1;3;0;385;3883;316;-1825;-41;-277;-32
247967;1;3;0;385;3883;327;-1820;-43;-270;-8
247977;1;3;0;385;3850;312;-1818;-80;-268;-41
247987;1;3;0;385;3853;331;-1787;-72;-239;-30
247997;1;3;0;385;3883;336;-1813;-40;-260;37
248007;1;3;0;385;3848;295;-1786;-9;-319;73
248017;1;3;0;385;3850;276;-1826;34;-583;333
248027;1;3;0;385;3869;275;-1814;-44;-309;72
248037;1;3;0;385;3868;244;-1820;-85;-247;-2
248047;1;3;0;385;3858;257;-1816;-120;-239;-67
248057;1;3;0;385;3867;291;-1857;-119;-245;-112
248067;1;3;0;385;3823;325;-1892;-112;-225;-114
248077;1;3;0;385;3678;492;-1788;-70;-707;301
248087;1;3;0;385;3839;326;-1928;-70;-266;17
248097;1;3;0;385;3851;316;-1873;-64;-132;-34
248107;1;3;0;385;3877;273;-1842;-55;-154;-2
248117;1;3;0;385;3948;308;-1884;-31;-170;89
248127;1;3;0;385;3891;256;-1852;-39;-182;88
248137;1;3;0;385;3872;298;-1869;-38;-219;62
248147;1;3;0;385;3852;306;-1840;-53;-238;75
248157;1;3;0;385;3818;317;-1842;-53;-220;94
248167;1;3;0;385;3840;308;-1830;-67;-195;94
248177;1;3;0;385;3821;291;-1847;-76;-180;112
248187;1;3;0;385;3824;250;-1835;-64;-170;132
248197;1;3;0;385;3836;252;-1863;-37;-205;182
248207;1;3;0;385;3838;252;-1856;-25;-194;199
248217;1;3;0;385;3855;250;-1845;59;-237;286
248227;1;3;0;385;3856;270;-1833;19;-214;194
248237;1;3;0;385;3847;282;-1818;7;-191;124
248247;1;3;0;385;3842;283;-1828;-21;-173;65
248257;1;3;0;385;3831;269;-1858;-63;-164;27
248267;1;3;0;385;3839;273;-1875;-90;-144;10
248277;1;3;0;385;3821;249;-1880;-118;-144;7
248287;1;3;0;385;3842;257;-1888;-114;-141;19
248297;1;3;0;385;3820;248;-1876;-126;-131;30
248307;1;3;0;385;3828;253;-1862;-100;-144;40
248317;1;3;0;385;3839;261;-1865;-104;-156;21
248327;1;3;0;385;3851;244;-1883;-99;-182;0
248337;1;3;0;386;3857;229;-1890;-113;-194;-35
248347;1;3;0;386;3864;255;-1876;-131;-178;-39
248357;1;3;0;386;3835;267;-1899;-110;-185;10
248367;1;3;0;386;3820;298;-1872;-79;-172;67
248377;1;3;0;386;3856;293;-1825;-42;-193;132
248387;1;3;0;386;3848;303;-1809;-33;-272;190
248397;1;3;0;386;3891;254;-1842;-39;-328;190
248407;1;3;0;386;3873;239;-1858;-72;-255;100
248417;1;3;0;386;3852;233;-1883;-85;-222;86
248427;1;3;0;386;3828;217;-1901;-73;-217;116
248437;1;3;0;386;3829;211;-1907;-73;-190;151
248447;1;3;0;386;3833;224;-1891;-56;-202;218
248457;1;3;0;386;3835;217;-1860;-62;-186;190
248467;1;3;0;386;3802;236;-1864;-90;-202;146
248477;1;3;0;386;3804;213;-1863;-87;-212;106
248487;1;3;0;386;3812;217;-1882;-74;-224;88
248497;1;3;0;386;3810;220;-1879;-76;-185;79
248507;1;3;0;386;3820;218;-1878;-77;-150;49
248517;1;3;0;386;3825;198;-1924;-93;-133;31
248527;1;3;0;386;3825;199;-1904;-106;-131;20
248537;1;3;0;386;3829;189;-1889;-117;-139;16
248547;1;3;0;386;3827;205;-1883;-131;-144;-9
248557;1;3;0;386;3834;219;-1901;-125;-124;-39
248567;1;3;0;386;3840;226;-1878;-120;-101;-62
248577;1;3;0;386;3813;234;-1887;-114;-78;-73
248587;1;3;0;386;3819;214;-1879;-112;-64;-54
248597;1;3;0;386;3834;220;-1877;-121;-55;-33
248607;1;3;0;386;3855;224;-1889;-124;-59;-18
248617;1;3;0;386;3851;203;-1888;-146;-76;-10
248627;1;3;0;386;3869;194;-1909;-162;-85;-26
248637;1;3;0;386;3856;197;-1910;-159;-85;-53
248647;1;3;0;386;3844;207;-1908;-148;-81;-63
248657;1;3;0;386;3837;220;-1885;-130;-72;-54
248667;1;3;0;386;3830;229;-1879;-109;-90;-41
248677;1;3;0;386;3843;225;-1867;-112;-103;-44
248687;1;3;0;386;3852;207;-1887;-133;-119;-37
248697;1;3;0;386;3850;201;-1888;-137;-126;-36
248707;1;3;0;386;3837;208;-1930;-133;-122;-27
248717;1;3;0;386;3826;200;-1926;-152;-95;-7
248727;1;3;0;386;3813;190;-1900;-146;-74;-27
248737;1;3;0;386;3814;209;-1888;-141;-58;-50
248747;1;3;0;386;3806;214;-1861;-133;-41;-45
248757;1;3;0;386;3816;205;-1854;-121;-45;-50
248767;1;3;0;386;3827;215;-1850;-124;-52;-73
248777;1;3;0;386;3839;221;-1866;-134;-66;-84
248787;1;3;0;386;3835;215;-1873;-127;-61;-62
248797;1;3;0;386;3845;203;-1924;-143;-46;-48
248807;1;3;0;386;3849;185;-1909;-146;-48;-68
248817;1;3;0;386;3847;205;-1927;-165;-54;-83
248827;1;3;0;386;3872;209;-1914;-159;-63;-79
248837;1;3;0;387;3852;227;-1887;-138;-62;-66
248847;1;3;0;387;3834;217;-1869;-129;-57;-47
248857;1;3;0;387;3849;204;-1848;-117;-68;-40
248867;1;3;0;387;3833;196;-1858;-116;-78;-37
248877;1;3;0;387;3823;180;-1874;-123;-73;-21
248887;1;3;0;387;3840;191;-1880;-121;-58;-26
248897;1;3;0;387;3848;196;-1868;-116;-56;-45
248907;1;3;0;387;3844;200;-1890;-124;-65;-66
248917;1;3;0;387;3826;214;-1893;-137;-50;-91
248927;1;3;0;387;3839;210;-1892;-157;-38;-96
248937;1;3;0;387;3832;187;-1913;-172;-7;-88
248947;1;3;0;387;3831;179;-1896;-189;14;-74
248957;1;3;0;387;3825;179;-1871;-184;14;-74
248967;1;3;0;387;3833;187;-1889;-166;14;-77
248977;1;3;0;387;3834;208;-1893;-165;5;-86
248987;1;3;0;387;3836;217;-1889;-143;-14;-103
248997;1;3;0;387;3850;230;-1880;-156;7;-120
249007;1;3;0;387;3856;216;-1850;-167;8;-137
249017;1;3;0;387;3846;216;-1847;-177;-1;-138
249027;1;3;0;387;3821;206;-1867;-176;-5;-121
249037;1;3;0;387;3818;221;-1877;-171;-4;-90
249047;1;3;0;387;3844;206;-1847;-172;-23;-65
249057;1;3;0;387;3845;196;-1869;-158;-52;-78
249067;1;3;0;387;3848;211;-1850;-135;-58;-98
249077;1;3;0;387;3855;223;-1846;-127;-41;-78
249087;1;3;0;387;3880;222;-1848;-136;-38;-70
249097;1;3;0;387;3876;193;-1850;-155;-31;-92
249107;1;3;0;387;3866;180;-1855;-181;-29;-108
249117;1;3;0;387;3847;188;-1878;-187;-15;-109
249127;1;3;0;387;3820;196;-1879;-201;12;-121
249137;1;3;0;387;3823;218;-1906;-202;36;-134
249147;1;3;0;387;3826;233;-1892;-203;60;-151
249157;1;3;0;387;3837;227;-1886;-205;76;-169
249167;1;3;0;387;3857;220;-1872;-199;77;-190
249177;1;3;0;387;3870;208;-1901;-193;70;-190
249187;1;3;0;387;3862;214;-1892;-215;74;-152
249197;1;3;0;387;3873;201;-1879;-212;25;-132
249207;1;3;0;387;3848;199;-1847;-199;-24;-110
249217;1;3;0;387;3833;226;-1847;-177;-51;-95
249227;1;3;0;387;3839;228;-1839;-158;-61;-89
249237;1;3;0;387;3844;235;-1830;-140;-70;-83
249247;1;3;0;387;3865;238;-1842;-132;-62;-81
249257;1;3;0;387;3866;230;-1855;-130;-54;-60
249267;1;3;0;387;3862;203;-1867;-146;-45;-59
249277;1;3;0;387;3873;204;-1857;-172;-41;-58
249287;1;3;0;387;3860;212;-1845;-180;-60;-66
249297;1;3;0;387;3850;228;-1826;-175;-74;-90
249307;1;3;0;387;3852;234;-1829;-162;-70;-113
249317;1;3;0;387;3854;242;-1830;-152;-73;-121
249327;1;3;0;387;3844;225;-1844;-172;-46;-122
249337;1;3;0;388;3875;222;-1849;-178;-46;-123
249347;1;3;0;388;3852;220;-1870;-189;-33;-127
249357;1;3;0;388;3849;224;-1868;-195;-18;-121
249367;1;3;0;388;3847;233;-1867;-209;-19;-102
249377;1;3;0;388;3842;220;-1865;-197;-30;-82
249387;1;3;0;388;3854;222;-1861;-203;-35;-84
249397;1;3;0;388;3853;225;-1835;-208;-26;-95
249407;1;3;0;388;3846;241;-1838;-200;-14;-101
249417;1;3;0;388;3840;241;-1855;-209;7;-106
249427;1;3;0;388;3853;235;-1858;-215;29;-107
249437;1;3;0;388;3857;238;-1856;-219;31;-102
249447;1;3;0;388;3866;234;-1852;-216;29;-109
249457;1;3;0;388;3884;225;-1838;-234;8;-115
249467;1;3;0;388;3874;243;-1856;-228;-8;-139
249477;1;3;0;388;3869;242;-1831;-226;-9;-163
249487;1;3;0;388;3861;259;-1835;-214;-15;-160
249497;1;3;0;388;3879;247;-1810;-210;-19;-138
249507;1;3;0;388;3870;231;-1814;-213;8;-142
249517;1;3;0;388;3862;244;-1840;-214;37;-107
249527;1;3;0;388;3843;239;-1805;-209;34;-40
249537;1;3;0;388;3856;204;-1812;-206;22;-30
249547;1;3;0;388;3878;221;-1813;-191;-18;-50
249557;1;3;0;388;3874;226;-1824;-181;-20;-65
249567;1;3;0;388;3872;231;-1833;-193;9;-84
249577;1;3;0;388;3879;235;-1846;-206;32;-117
249587;1;3;0;388;3876;238;-1848;-235;58;-156
249597;1;3;0;388;3882;245;-1845;-247;66;-185
249607;1;3;0;388;3864;256;-1832;-218;48;-166
249617;1;3;0;388;3848;258;-1832;-202;33;-145
249627;1;3;0;388;3856;256;-1827;-205;5;-134
249637;1;3;0;388;3863;241;-1823;-202;5;-120
249647;1;3;0;388;3906;264;-1827;-217;24;-105
249657;1;3;0;388;3907;265;-1823;-241;65;-125
249667;1;3;0;388;3895;228;-1809;-249;59;-157
249677;1;3;0;388;3880;237;-1824;-248;50;-142
249687;1;3;0;388;3881;242;-1820;-235;25;-101
249697;1;3;0;388;3867;245;-1804;-198;-11;-69
249707;1;3;0;388;3866;262;-1796;-181;-23;-64
249717;1;3;0;388;3883;279;-1783;-163;-33;-56
249727;1;3;0;388;3874;265;-1817;-161;-26;-70
249737;1;3;0;388;3902;257;-1821;-174;-3;-93
249747;1;3;0;388;3899;242;-1820;-194;9;-111
249757;1;3;0;388;3885;230;-1811;-201;-7;-116
249767;1;3;0;388;3886;227;-1796;-212;-26;-105
249777;1;3;0;388;3869;226;-1811;-202;-61;-103
249787;1;3;0;388;3844;257;-1786;-190;-71;-96
249797;1;3;0;388;3854;284;-1812;-190;-64;-104
249807;1;3;0;388;3859;275;-1838;-186;-38;-111
249817;1;3;0;388;3854;274;-1818;-198;-3;-119
249827;1;3;0;388;3890;251;-1809;-214;7;-138
249837;1;3;0;389;3893;240;-1818;-205;-9;-134
249847;1;3;0;389;3894;241;-1810;-199;-27;-135
249857;1;3;0;389;3898;258;-1820;-208;-37;-96
249867;1;3;0;389;3885;261;-1790;-188;-46;-63
249877;1;3;0;389;3886;262;-1798;-169;-63;-51
249887;1;3;0;389;3896;271;-1774;-170;-64;-54
249897;1;3;0;389;3902;268;-1787;-153;-60;-57
249907;1;3;0;389;3906;275;-1799;-157;-37;-61
249917;1;3;0;389;3878;274;-1812;-185;6;-90
249927;1;3;0;389;3878;257;-1806;-204;21;-105
249937;1;3;0;389;3865;249;-1799;-216;42;-131
249947;1;3;0;389;3846;275;-1794;-216;30;-100
249957;1;3;0;389;3849;263;-1786;-213;52;-110
249967;1;3;0;389;3863;275;-1790;-198;25;-92
249977;1;3;0;389;3885;268;-1789;-185;-13;-78
249987;1;3;0;389;3893;263;-1807;-191;-15;-85
249997;1;3;0;389;3903;243;-1794;-193;-14;-88
250007;1;3;0;389;3906;260;-1804;-212;8;-108
250017;1;3;0;389;3886;265;-1803;-229;20;-139
250027;1;3;0;389;3886;264;-1794;-238;19;-151
250037;1;3;0;389;3869;269;-1779;-214;12;-159
250047;1;3;0;389;3869;276;-1779;-188;6;-155
250057;1;3;0;389;3899;283;-1774;-178;-12;-138
250067;1;3;0;389;3895;276;-1765;-168;-15;-139
250077;1;3;0;389;3907;278;-1777;-160;-19;-140
250087;1;3;0;389;3894;269;-1790;-162;-10;-116
250097;1;3;0;389;3897;254;-1765;-171;-31;-81
250107;1;3;0;389;3895;254;-1772;-180;-51;-64
250117;1;3;0;389;3891;269;-1770;-183;-62;-76
250127;1;3;0;389;3900;264;-1790;-177;-10;-128
250137;1;3;0;389;3892;281;-1785;-171;-15;-144
250147;1;3;0;389;3874;269;-1787;-180;-46;-138
250157;1;3;0;389;3892;269;-1798;-177;-45;-140
250167;1;3;0;389;3877;296;-1782;-190;-29;-134
250177;1;3;0;389;3879;286;-1774;-192;-10;-120
250187;1;3;0;389;3880;285;-1786;-194;-12;-118
250197;1;3;0;389;3880;295;-1764;-179;-33;-104
250207;1;3;0;389;3891;287;-1779;-170;-42;-103
250217;1;3;0;389;3904;275;-1756;-166;-55;-103
250227;1;3;0;389;3912;277;-1788;-173;-50;-110
250237;1;3;0;389;3897;269;-1799;-198;-32;-123
250247;1;3;0;389;3908;273;-1784;-222;-19;-124
250257;1;3;0;389;3907;269;-1773;-244;-18;-152
250267;1;3;0;389;3884;280;-1771;-206;-47;-123
250277;1;3;0;389;3895;299;-1772;-177;-59;-97
250287;1;3;0;389;3884;306;-1773;-162;-67;-79
250297;1;3;0;389;3885;302;-1751;-152;-81;-68
250307;1;3;0;389;3904;285;-1760;-145;-86;-54
250317;1;3;0;389;3892;258;-1751;-164;-87;-51
250327;1;3;0;389;3904;268;-1755;-180;-72;-68
250337;1;3;0;390;3907;276;-1764;-176;-76;-108
250347;1;3;0;390;3893;283;-1771;-165;-44;-154
250357;1;3;0;390;3892;292;-1779;-165;-62;-134
250367;1;3;0;390;3900;309;-1785;-167;-56;-107
250377;1;3;0;390;3880;305;-1770;-162;-42;-106
250387;1;3;0;390;3890;296;-1776;-162;-50;-103
250397;1;3;0;390;3911;282;-1764;-175;-43;-95
250407;1;3;0;390;3899;279;-1748;-182;-56;-85
250417;1;3;0;390;3887;282;-1751;-189;-57;-89
250427;1;3;0;390;3895;298;-1745;-169;-67;-93
250437;1;3;0;390;3898;308;-1762;-159;-72;-103
250447;1;3;0;390;3911;309;-1769;-162;-70;-94
250457;1;3;0;390;3898;300;-1773;-155;-77;-88
250467;1;3;0;390;3881;285;-1765;-161;-80;-81
250477;1;3;0;390;3892;290;-1770;-165;-64;-74
250487;1;3;0;390;3888;286;-1756;-181;-60;-79
250497;1;3;0;390;3886;280;-1767;-173;-64;-93
250507;1;3;0;390;3897;301;-1757;-180;-74;-98
250517;1;3;0;390;3911;308;-1758;-181;-65;-98
250527;1;3;0;390;3903;297;-1751;-169;-71;-98
250537;1;3;0;390;3915;297;-1768;-166;-72;-98
250547;1;3;0;390;3898;280;-1777;-171;-81;-91
250557;1;3;0;390;3902;288;-1775;-162;-108;-81
250567;1;3;0;390;3904;298;-1786;-165;-105;-80
250577;1;3;0;390;3891;313;-1751;-168;-94;-94
250587;1;3;0;390;3900;292;-1771;-152;-82;-88
250597;1;3;0;390;3905;308;-1764;-158;-74;-95
250607;1;3;0;390;3889;292;-1765;-157;-77;-91
250617;1;3;0;390;3899;292;-1755;-141;-103;-83
250627;1;3;0;390;3896;297;-1749;-151;-99;-76
250637;1;3;0;390;3901;297;-1762;-150;-104;-70
250647;1;3;0;390;3901;289;-1754;-139;-101;-66
250657;1;3;0;390;3890;296;-1762;-142;-91;-68
250667;1;3;0;390;3899;283;-1768;-153;-98;-61
250677;1;3;0;390;3909;298;-1725;-144;-114;-72
250687;1;3;0;390;3899;312;-1746;-138;-115;-84
250697;1;3;0;390;3881;330;-1744;-135;-102;-80
250707;1;3;0;390;3897;322;-1749;-145;-83;-69
250717;1;3;0;390;3892;287;-1738;-145;-99;-79
250727;1;3;0;390;3912;286;-1752;-163;-95;-99
250737;1;3;0;390;3891;272;-1766;-170;-96;-87
250747;1;3;0;390;3902;273;-1776;-180;-99;-69
250757;1;3;0;390;3924;292;-1757;-166;-115;-72
250767;1;3;0;390;3917;306;-1772;-152;-114;-78
250777;1;3;0;390;3895;308;-1755;-132;-107;-68
250787;1;3;0;390;3911;313;-1785;-131;-114;-58
250797;1;3;0;390;3898;304;-1750;-135;-129;-51
250807;1;3;0;390;3896;288;-1769;-144;-139;-41
250817;1;3;0;390;3899;308;-1752;-126;-146;-32
250827;1;3;0;390;3887;304;-1752;-123;-134;-30
250837;1;3;0;391;3881;308;-1756;-117;-126;-37
250847;1;3;0;391;3908;304;-1763;-130;-119;-57
250857;1;3;0;391;3911;307;-1740;-144;-100;-78
250867;1;3;0;391;3919;285;-1764;-142;-96;-86
250877;1;3;0;391;3917;274;-1773;-141;-112;-83
250887;1;3;0;391;3909;277;-1757;-131;-150;-89
250897;1;3;0;391;3923;284;-1764;-120;-187;-78
250907;1;3;0;391;3914;300;-1747;-118;-208;-75
250917;1;3;0;391;3918;289;-1782;-117;-211;-82
250927;1;3;0;391;3921;299;-1771;-128;-208;-96
250937;1;3;0;391;3922;292;-1779;-128;-214;-97
250947;1;3;0;391;3894;282;-1772;-125;-212;-107
250957;1;3;0;391;3896;304;-1788;-118;-216;-109
250967;1;3;0;391;3900;310;-1781;-107;-239;-103
250977;1;3;0;391;3885;302;-1792;-92;-250;-108
250987;1;3;0;391;3891;299;-1767;-75;-261;-100
250997;1;3;0;391;3887;284;-1798;-86;-254;-98
251007;1;3;0;391;3889;305;-1787;-91;-246;-95
251017;1;3;0;391;3904;297;-1798;-119;-237;-103
251027;1;3;0;391;3887;298;-1804;-124;-227;-114
251037;1;3;0;391;3892;298;-1795;-133;-228;-120
251047;1;3;0;391;3890;304;-1777;-128;-248;-121
251057;1;3;0;391;3868;307;-1785;-101;-251;-111
251067;1;3;0;391;3870;313;-1787;-90;-249;-84
251077;1;3;0;391;3874;298;-1780;-65;-262;-48
251087;1;3;0;391;3891;290;-1788;-64;-263;-46
251097;1;3;0;391;3898;287;-1796;-80;-249;-60
251107;1;3;0;391;3891;292;-1794;-86;-238;-74
251117;1;3;0;391;3894;294;-1792;-98;-222;-86
251127;1;3;0;391;3877;284;-1800;-115;-194;-95
251137;1;3;0;391;3877;299;-1786;-122;-189;-110
251147;1;3;0;391;3868;306;-1794;-114;-208;-109
251157;1;3;0;391;3889;307;-1798;-120;-221;-104
251167;1;3;0;391;3883;300;-1825;-95;-225;-87
251177;1;3;0;391;3855;286;-1827;-95;-216;-76
251187;1;3;0;391;3895;285;-1830;-96;-228;-59
251197;1;3;0;391;3877;279;-1813;-84;-236;-52
251207;1;3;0;391;3877;274;-1818;-92;-235;-60
251217;1;3;0;391;3879;288;-1815;-88;-244;-75
251227;1;3;0;391;3871;299;-1822;-88;-238;-95
251237;1;3;0;391;3860;316;-1791;-99;-231;-100
251247;1;3;0;391;3856;318;-1790;-98;-197;-85
251257;1;3;0;391;3863;302;-1797;-105;-170;-86
251267;1;3;0;391;3860;310;-1799;-89;-174;-75
251277;1;3;0;391;3867;310;-1803;-82;-159;-50
251287;1;3;0;391;3873;288;-1827;-90;-173;-27
251297;1;3;0;391;3882;275;-1830;-87;-174;-18
251307;1;3;0;391;3895;257;-1826;-95;-181;-11
251317;1;3;0;391;3885;276;-1822;-105;-195;-28
251327;1;3;0;391;3868;288;-1809;-117;-210;-58
251337;1;3;0;392;3856;306;-1811;-100;-233;-61
251347;1;3;0;392;3851;318;-1838;-93;-239;-55
251357;1;3;0;392;3843;311;-1826;-73;-238;-34
251367;1;3;0;392;3858;308;-1832;-66;-226;-4
251377;1;3;0;392;3860;296;-1822;-57;-241;48
251387;1;3;0;392;3861;284;-1818;-43;-295;113
251397;1;3;0;392;3868;279;-1834;-40;-264;67
251407;1;3;0;392;3873;283;-1821;-63;-223;24
251417;1;3;0;392;3894;274;-1835;-71;-209;5
251427;1;3;0;392;3887;277;-1822;-67;-215;-5
251437;1;3;0;392;3872;289;-1832;-83;-205;-21
251447;1;3;0;392;3871;288;-1833;-81;-207;-32
251457;1;3;0;392;3838;277;-1830;-89;-221;-38
251467;1;3;0;392;3835;292;-1837;-100;-233;-4
251477;1;3;0;392;3881;253;-1849;-90;-321;89
251487;1;3;0;392;3855;281;-1845;-86;-220;5
251497;1;3;0;392;3852;277;-1848;-84;-190;-10
251507;1;3;0;392;3850;273;-1835;-87;-190;-14
251517;1;3;0;392;3845;285;-1835;-95;-196;-17
251527;1;3;0;392;3848;281;-1857;-97;-189;-15
251537;1;3;0;392;3846;268;-1845;-105;-174;-15
251547;1;3;0;392;3850;275;-1824;-92;-162;3
251557;1;3;0;392;3841;272;-1846;-89;-164;-5
251567;1;3;0;392;3846;273;-1854;-103;-158;-3
251577;1;3;0;392;3843;258;-1847;-90;-160;-1
251587;1;3;0;392;3852;278;-1847;-101;-165;-4
251597;1;3;0;392;3847;273;-1832;-111;-173;4
251607;1;3;0;392;3852;276;-1823;-108;-153;2
251617;1;3;0;392;3867;272;-1835;-113;-141;0
251627;1;3;0;392;3829;275;-1818;-110;-129;2
251637;1;3;0;392;3843;269;-1832;-102;-105;3
251647;1;3;0;392;3857;262;-1848;-105;-102;0
251657;1;3;0;392;3827;251;-1828;-114;-93;2
251667;1;3;0;392;3830;251;-1835;-107;-97;-3
251677;1;3;0;392;3851;255;-1832;-130;-96;-13
251687;1;3;0;392;3843;253;-1851;-134;-92;-31
251697;1;3;0;392;3864;251;-1847;-137;-91;-39
251707;1;3;0;392;3869;263;-1845;-135;-88;-46
251717;1;3;0;392;3852;260;-1844;-131;-94;-55
251727;1;3;0;392;3839;277;-1843;-118;-87;-46
251737;1;3;0;392;3828;277;-1839;-118;-85;-13
251747;1;3;0;392;3846;242;-1840;-107;-101;17
251757;1;3;0;392;3848;237;-1833;-129;-102;-13
251767;1;3;0;392;3840;254;-1846;-130;-86;-27
251777;1;3;0;392;3829;241;-1851;-126;-92;-11
251787;1;3;0;392;3865;232;-1844;-151;-74;-45
251797;1;3;0;392;3867;251;-1836;-168;-46;-100
251807;1;3;0;392;3827;266;-1852;-152;-37;-96
251817;1;3;0;392;3851;280;-1850;-140;-34;-68
251827;1;3;0;392;3843;279;-1866;-139;-45;-58
251837;1;3;0;393;3855;260;-1872;-137;-60;-48
251847;1;3;0;393;3871;263;-1860;-143;-71;-40
251857;1;3;0;393;3862;249;-1858;-133;-66;-30
251867;1;3;0;393;3846;253;-1833;-127;-49;-38
251877;1;3;0;393;3857;246;-1822;-138;-61;-42
251887;1;3;0;393;3840;250;-1848;-136;-69;-50
251897;1;3;0;393;3849;262;-1828;-147;-55;-59
251907;1;3;0;393;3860;255;-1825;-151;-45;-55
251917;1;3;0;393;3851;249;-1834;-147;-47;-50
251927;1;3;0;393;3855;242;-1842;-145;-42;-41
251937;1;3;0;393;3872;244;-1840;-137;-42;-37
251947;1;3;0;393;3841;245;-1831;-142;-44;-35
251957;1;3;0;393;3839;235;-1828;-153;-20;-42
251967;1;3;0;393;3851;244;-1821;-156;-17;-44
251977;1;3;0;393;3864;239;-1837;-149;-26;-56
251987;1;3;0;393;3857;245;-1827;-148;-42;-76
251997;1;3;0;393;3850;247;-1835;-155;-35;-83
252007;1;3;0;393;3859;254;-1854;-165;-32;-86
252017;1;3;0;393;3855;263;-1856;-172;-21;-99
252027;1;3;0;393;3842;253;-1851;-178;-8;-102
252037;1;3;0;393;3844;260;-1837;-167;-8;-86
252047;1;3;0;393;3859;256;-1843;-178;-20;-69
252057;1;3;0;393;3844;252;-1838;-161;-13;-68
252067;1;3;0;393;3841;264;-1822;-172;4;-53
252077;1;3;0;393;3864;243;-1817;-176;-11;-67
252087;1;3;0;393;3863;247;-1836;-179;-14;-86
252097;1;3;0;393;3863;273;-1818;-197;-1;-96
252107;1;3;0;393;3876;250;-1842;-206;13;-93
252117;1;3;0;393;3854;233;-1835;-215;20;-71
252127;1;3;0;393;3867;234;-1855;-200;6;-59
252137;1;3;0;393;3888;244;-1840;-196;-9;-74
252147;1;3;0;393;3874;245;-1843;-200;7;-107
252157;1;3;0;393;3881;258;-1833;-216;39;-142
252167;1;3;0;393;3865;261;-1833;-228;62;-155
252177;1;3;0;393;3852;264;-1831;-231;55;-151
252187;1;3;0;393;3863;277;-1819;-222;39;-134
252197;1;3;0;393;3846;267;-1826;-223;55;-114
252207;1;3;0;393;3860;262;-1833;-214;60;-68
252217;1;3;0;393;3863;260;-1834;-212;54;-57
252227;1;3;0;393;3890;254;-1827;-209;45;-65
252237;1;3;0;393;3886;247;-1829;-221;24;-74
252247;1;3;0;393;3890;235;-1821;-240;27;-78
252257;1;3;0;393;3893;252;-1799;-234;11;-101
252267;1;3;0;393;3846;257;-1805;-209;11;-116
252277;1;3;0;393;3853;276;-1810;-206;20;-118
252287;1;3;0;393;3856;272;-1805;-195;49;-130
252297;1;3;0;393;3896;275;-1818;-212;85;-143
252307;1;3;0;393;3866;256;-1823;-224;103;-154
252317;1;3;0;393;3875;245;-1824;-232;113;-159
252327;1;3;0;393;3901;243;-1807;-242;106;-175
252337;1;3;0;394;3905;251;-1790;-259;86;-191
252347;1;3;0;394;3907;289;-1810;-249;49;-205
252357;1;3;0;394;3880;294;-1792;-246;52;-223
252367;1;3;0;394;3878;317;-1807;-251;73;-216
252377;1;3;0;394;3874;309;-1789;-216;70;-168
252387;1;3;0;394;3885;300;-1785;-190;53;-106
252397;1;3;0;394;3884;273;-1774;-179;61;-71
252407;1;3;0;394;3900;230;-1787;-165;85;-118
252417;1;3;0;394;3901;293;-1766;-164;41;-102
252427;1;3;0;394;3916;282;-1796;-179;-23;-69
252437;1;3;0;394;3915;273;-1786;-185;-24;-85
252447;1;3;0;394;3896;288;-1809;-187;-23;-97
252457;1;3;0;394;3871;260;-1768;-196;-24;-102
252467;1;3;0;394;3877;274;-1790;-203;-12;-102
252477;1;3;0;394;3859;286;-1771;-207;1;-115
252487;1;3;0;394;3874;280;-1774;-218;15;-131
252497;1;3;0;394;3884;298;-1772;-209;24;-146
252507;1;3;0;394;3899;289;-1790;-208;38;-148
252517;1;3;0;394;3895;281;-1807;-201;44;-150
252527;1;3;0;394;3898;281;-1777;-203;41;-146
252537;1;3;0;394;3894;284;-1770;-217;34;-143
252547;1;3;0;394;3886;284;-1775;-205;26;-133
252557;1;3;0;394;3898;299;-1756;-211;55;-137
252567;1;3;0;394;3894;303;-1762;-188;15;-124
252577;1;3;0;394;3907;300;-1771;-175;-3;-121
252587;1;3;0;394;3906;296;-1763;-172;-12;-132
252597;1;3;0;394;3912;307;-1774;-179;3;-155
252607;1;3;0;394;3915;310;-1770;-195;18;-186
252617;1;3;0;394;3910;312;-1766;-206;-4;-172
252627;1;3;0;394;3900;309;-1771;-199;-22;-144
252637;1;3;0;394;3894;304;-1774;-182;-16;-99
252647;1;3;0;394;3897;289;-1770;-169;-34;-62
252657;1;3;0;394;3900;279;-1764;-173;-52;-82
252667;1;3;0;394;3894;299;-1774;-175;-58;-78
252677;1;3;0;394;3896;276;-1773;-178;-64;-54
252687;1;3;0;394;3910;276;-1777;-174;-91;-57
252697;1;3;0;394;3894;283;-1756;-167;-81;-74
252707;1;3;0;394;3872;300;-1762;-177;-54;-98
252717;1;3;0;394;3868;317;-1772;-180;-28;-98
252727;1;3;0;394;3861;331;-1744;-168;-17;-95
252737;1;3;0;394;3870;319;-1758;-178;-2;-115
252747;1;3;0;394;3907;324;-1766;-166;-1;-114
252757;1;3;0;394;3899;316;-1761;-165;-1;-123
252767;1;3;0;394;3892;316;-1756;-178;13;-116
252777;1;3;0;394;3898;294;-1761;-191;27;-104
252787;1;3;0;394;3911;300;-1768;-188;8;-83
252797;1;3;0;394;3918;311;-1749;-218;16;-114
252807;1;3;0;394;3910;314;-1746;-221;2;-128
252817;1;3;0;394;3906;306;-1751;-207;-1;-124
252827;1;3;0;394;3874;312;-1737;-202;4;-116
252837;1;3;0;395;3889;306;-1747;-178;-8;-100
252847;1;3;0;395;3903;313;-1737;-132;-48;-69
252857;1;3;0;395;3898;302;-1754;-114;-69;-57
252867;1;3;0;395;3942;297;-1730;-128;-69;-46
252877;1;3;0;395;3937;284;-1743;-147;-72;-39
252887;1;3;0;395;3901;285;-1751;-160;-76;-54
252897;1;3;0;395;3911;298;-1742;-176;-62;-58
252907;1;3;0;395;3904;311;-1745;-179;-64;-77
252917;1;3;0;395;3897;320;-1736;-164;-81;-89
252927;1;3;0;395;3890;309;-1724;-155;-82;-74
252937;1;3;0;395;3901;313;-1739;-161;-93;-81
252947;1;3;0;395;3896;310;-1759;-159;-87;-88
252957;1;3;0;395;3891;310;-1747;-158;-72;-76
252967;1;3;0;395;3888;299;-1760;-157;-90;-57
252977;1;3;0;395;3893;313;-1757;-146;-85;-56
252987;1;3;0;395;3917;290;-1743;-157;-83;-63
252997;1;3;0;395;3915;295;-1763;-174;-79;-94
253007;1;3;0;395;3909;303;-1733;-174;-75;-95
253017;1;3;0;395;3893;309;-1743;-167;-65;-74
253027;1;3;0;395;3899;305;-1737;-151;-79;-55
253037;1;3;0;395;3903;310;-1728;-154;-88;-62
253047;1;3;0;395;3901;319;-1742;-148;-100;-71
253057;1;3;0;395;3905;321;-1737;-133;-91;-55
253067;1;3;0;395;3922;313;-1734;-130;-91;-65
253077;1;3;0;395;3910;310;-1755;-153;-89;-70
253087;1;3;0;395;3912;316;-1744;-163;-91;-75
253097;1;3;0;395;3905;311;-1743;-168;-84;-73
253107;1;3;0;395;3909;323;-1745;-165;-85;-78
253117;1;3;0;395;3896;309;-1739;-157;-88;-73
253127;1;3;0;395;3898;317;-1730;-135;-102;-66
253137;1;3;0;395;3895;315;-1732;-130;-121;-62
253147;1;3;0;395;3920;299;-1744;-132;-121;-62
253157;1;3;0;395;3905;285;-1768;-138;-120;-69
253167;1;3;0;395;3910;283;-1764;-155;-117;-62
253177;1;3;0;395;3905;286;-1756;-164;-134;-50
253187;1;3;0;395;3901;320;-1742;-153;-126;-70
253197;1;3;0;395;3898;323;-1733;-139;-117;-72
253207;1;3;0;395;3910;332;-1730;-136;-104;-90
253217;1;3;0;395;3891;339;-1733;-132;-100;-109
253227;1;3;0;395;3889;303;-1740;-148;-74;-103
253237;1;3;0;395;3912;311;-1745;-147;-75;-87
253247;1;3;0;395;3913;307;-1745;-159;-101;-78
253257;1;3;0;395;3916;302;-1749;-149;-150;-74
253267;1;3;0;395;3939;306;-1742;-144;-187;-77
253277;1;3;0;395;3930;309;-1739;-135;-210;-89
253287;1;3;0;395;3922;310;-1779;-136;-227;-110
253297;1;3;0;395;3916;308;-1763;-140;-228;-126
253307;1;3;0;395;3892;311;-1776;-143;-209;-134
253317;1;3;0;395;3898;315;-1742;-156;-207;-131
253327;1;3;0;395;3917;322;-1753;-134;-222;-118
253337;1;3;0;396;3886;316;-1756;-121;-225;-93
253347;1;3;0;396;3899;314;-1760;-113;-232;-82
253357;1;3;0;396;3918;324;-1773;-95;-250;-75
253367;1;3;0;396;3923;312;-1763;-84;-255;-80
253377;1;3;0;396;3923;316;-1767;-83;-271;-73
253387;1;3;0;396;3924;312;-1752;-91;-277;-68
253397;1;3;0;396;3901;307;-1751;-95;-290;-66
253407;1;3;0;396;3890;311;-1739;-99;-306;-63
253417;1;3;0;396;3903;315;-1778;-89;-338;-58
253427;1;3;0;396;3877;327;-1772;-78;-327;-55
253437;1;3;0;396;3891;314;-1785;-80;-312;-54
253447;1;3;0;396;3900;316;-1787;-70;-284;-58
253457;1;3;0;396;3882;308;-1802;-73;-271;-52
253467;1;3;0;396;3881;310;-1773;-80;-245;-59
253477;1;3;0;396;3883;299;-1788;-73;-253;-50
253487;1;3;0;396;3880;298;-1777;-65;-243;-47
253497;1;3;0;396;3882;318;-1792;-41;-248;-42
253507;1;3;0;396;3886;299;-1781;-48;-253;-27
253517;1;3;0;396;3892;295;-1793;-54;-252;-35
253527;1;3;0;396;3901;295;-1803;-71;-262;-40
253537;1;3;0;396;3905;308;-1804;-90;-265;-47
253547;1;3;0;396;3884;305;-1804;-85;-270;-40
253557;1;3;0;396;3900;305;-1799;-83;-259;-49
253567;1;3;0;396;3895;312;-1785;-77;-256;-47
253577;1;3;0;396;3880;313;-1776;-64;-262;-60
253587;1;3;0;396;3856;329;-1800;-29;-289;-21
253597;1;3;0;396;3834;320;-1811;-21;-276;17
253607;1;3;0;396;3885;301;-1813;-18;-287;43
253617;1;3;0;396;3884;286;-1783;-36;-268;10
253627;1;3;0;396;3860;297;-1800;-43;-280;32
253637;1;3;0;396;3872;265;-1811;-40;-314;85
253647;1;3;0;396;3859;274;-1813;-47;-314;79
253657;1;3;0;396;3867;307;-1780;-41;-344;107
253667;1;3;0;396;3885;305;-1825;-26;-341;127
253677;1;3;0;396;3846;305;-1816;-36;-222;32
253687;1;3;0;396;3862;302;-1805;-62;-202;-4
253697;1;3;0;396;3864;292;-1829;-67;-219;-27
253707;1;3;0;396;3881;277;-1840;-75;-240;-39
253717;1;3;0;396;3884;279;-1838;-74;-225;-41
253727;1;3;0;396;3872;280;-1836;-79;-202;-46
253737;1;3;0;396;3856;284;-1827;-96;-194;-32
253747;1;3;0;396;3851;278;-1823;-90;-202;-1
253757;1;3;0;396;3868;286;-1824;-95;-188;-4
253767;1;3;0;396;3848;285;-1824;-74;-220;16
253777;1;3;0;396;3865;257;-1826;-58;-243;30
253787;1;3;0;396;3864;264;-1834;-73;-229;25
253797;1;3;0;396;3867;257;-1817;-62;-224;18
253807;1;3;0;396;3865;269;-1827;-86;-192;-5
253817;1;3;0;396;3863;264;-1832;-81;-172;-21
253827;1;3;0;396;3839;260;-1823;-80;-179;13
253837;1;3;0;397;3854;264;-1839;-73;-182;19
253847;1;3;0;397;3854;269;-1795;-74;-187;3
253857;1;3;0;397;3866;284;-1816;-90;-203;-30
253867;1;3;0;397;3861;273;-1835;-80;-205;-53
253877;1;3;0;397;3855;267;-1840;-103;-187;-74
253887;1;3;0;397;3866;266;-1844;-125;-168;-85
253897;1;3;0;397;3871;274;-1867;-128;-138;-98
253907;1;3;0;397;3845;279;-1847;-121;-123;-77
253917;1;3;0;397;3833;293;-1836;-101;-144;-49
253927;1;3;0;397;3841;287;-1827;-99;-163;-16
253937;1;3;0;397;3831;267;-1828;-76;-206;3
253947;1;3;0;397;3861;250;-1845;-84;-208;-6
253957;1;3;0;397;3873;264;-1842;-92;-196;-16
253967;1;3;0;397;3842;259;-1842;-86;-172;-12
253977;1;3;0;397;3859;269;-1857;-103;-140;-6
253987;1;3;0;397;3855;233;-1843;-125;-132;-23
253997;1;3;0;397;3840;237;-1855;-136;-133;-38
254007;1;3;0;397;3838;277;-1846;-114;-124;-43
254017;1;3;0;397;3827;278;-1831;-116;-110;-42
254027;1;3;0;397;3825;292;-1846;-114;-113;-32
254037;1;3;0;397;3842;274;-1841;-103;-108;-21
254047;1;3;0;397;3827;267;-1831;-115;-99;-12
254057;1;3;0;397;3841;249;-1828;-121;-102;3
254067;1;3;0;397;3838;250;-1849;-133;-100;-3
254077;1;3;0;397;3833;241;-1839;-141;-95;-10
254087;1;3;0;397;3838;243;-1838;-146;-89;-28
254097;1;3;0;397;3850;241;-1842;-162;-72;-52
254107;1;3;0;397;3850;254;-1846;-151;-78;-69
254117;1;3;0;397;3846;274;-1845;-139;-78;-88
254127;1;3;0;397;3844;278;-1850;-135;-76;-70
254137;1;3;0;397;3867;267;-1847;-126;-97;-58
254147;1;3;0;397;3877;257;-1846;-144;-101;-55
254157;1;3;0;397;3869;234;-1842;-154;-97;-58
254167;1;3;0;397;3862;223;-1860;-150;-106;-47
254177;1;3;0;397;3869;241;-1859;-163;-94;-62
254187;1;3;0;397;3858;262;-1859;-160;-79;-70
254197;1;3;0;397;3846;269;-1841;-154;-75;-73
254207;1;3;0;397;3852;263;-1838;-148;-76;-64
254217;1;3;0;397;3847;256;-1828;-137;-76;-57
254227;1;3;0;397;3844;261;-1834;-138;-86;-45
254237;1;3;0;397;3862;263;-1837;-127;-96;-33
254247;1;3;0;397;3849;263;-1835;-136;-98;-29
254257;1;3;0;397;3871;254;-1842;-132;-109;-27
254267;1;3;0;397;3872;244;-1848;-144;-102;-37
254277;1;3;0;397;3847;246;-1858;-140;-88;-56
254287;1;3;0;397;3849;245;-1857;-152;-72;-67
254297;1;3;0;397;3845;268;-1846;-155;-68;-85
254307;1;3;0;397;3841;258;-1829;-162;-64;-103
254317;1;3;0;397;3853;265;-1835;-153;-63;-96
254327;1;3;0;397;3855;253;-1845;-148;-63;-92
254337;1;3;0;398;3856;253;-1844;-152;-63;-90
254347;1;3;0;398;3869;250;-1844;-152;-81;-77
254357;1;3;0;398;3862;270;-1860;-147;-91;-70
254367;1;3;0;398;3864;261;-1840;-148;-103;-59
254377;1;3;0;398;3880;269;-1839;-139;-115;-71
254387;1;3;0;398;3882;261;-1857;-141;-110;-84
254397;1;3;0;398;3878;264;-1878;-151;-97;-99
254407;1;3;0;398;3861;266;-1860;-172;-75;-107
254417;1;3;0;398;3844;246;-1863;-168;-55;-83
254427;1;3;0;398;3838;245;-1838;-177;-55;-68
254437;1;3;0;398;3832;259;-1834;-158;-59;-66
254447;1;3;0;398;3822;253;-1808;-138;-67;-38
254457;1;3;0;398;3859;245;-1827;-117;-98;-18
254467;1;3;0;398;3884;244;-1819;-118;-109;-54
254477;1;3;0;398;3849;277;-1837;-118;-85;-75
254487;1;3;0;398;3856;273;-1864;-124;-50;-72
254497;1;3;0;398;3854;265;-1852;-133;-11;-69
254507;1;3;0;398;3853;245;-1884;-169;-7;-78
254517;1;3;0;398;3862;239;-1868;-196;-13;-85
254527;1;3;0;398;3862;245;-1845;-191;-34;-90
254537;1;3;0;398;3845;261;-1836;-163;-54;-85
254547;1;3;0;398;3845;290;-1822;-124;-67;-73
254557;1;3;0;398;3836;270;-1811;-123;-71;-57
254567;1;3;0;398;3852;268;-1843;-120;-76;-39
254577;1;3;0;398;3873;258;-1842;-127;-78;-21
254587;1;3;0;398;3861;255;-1832;-146;-50;-27
254597;1;3;0;398;3872;238;-1831;-137;-44;-21
254607;1;3;0;398;3861;247;-1831;-139;-43;-24
254617;1;3;0;398;3856;245;-1848;-155;-38;-41
254627;1;3;0;398;3866;231;-1837;-149;-51;-49
254637;1;3;0;398;3877;233;-1849;-161;-49;-67
254647;1;3;0;398;3849;246;-1838;-160;-51;-71
254657;1;3;0;398;3855;259;-1837;-163;-40;-73
254667;1;3;0;398;3858;257;-1829;-161;-34;-81
254677;1;3;0;398;3847;258;-1823;-146;-41;-85
254687;1;3;0;398;3846;246;-1820;-144;-39;-80
254697;1;3;0;398;3839;261;-1835;-140;-35;-75
254707;1;3;0;398;3859;264;-1843;-140;-33;-77
254717;1;3;0;398;3871;257;-1839;-153;-26;-80
254727;1;3;0;398;3875;246;-1832;-168;-23;-89
254737;1;3;0;398;3853;252;-1851;-177;-14;-92
254747;1;3;0;398;3868;237;-1859;-208;-20;-92
254757;1;3;0;398;3867;228;-1845;-207;-17;-93
254767;1;3;0;398;3857;246;-1834;-198;0;-112
254777;1;3;0;398;3853;297;-1834;-184;13;-103
254787;1;3;0;398;3837;278;-1827;-163;12;-85
254797;1;3;0;398;3861;262;-1810;-157;-3;-76
254807;1;3;0;398;3882;251;-1815;-157;-18;-59
254817;1;3;0;398;3876;235;-1794;-168;-17;-59
254827;1;3;0;398;3871;244;-1799;-184;15;-87
254837;1;3;0;399;3874;259;-1799;-217;43;-110
254847;1;3;0;399;3866;265;-1809;-226;52;-125
254857;1;3;0;399;3865;270;-1824;-244;65;-128
254867;1;3;0;399;3860;279;-1807;-238;57;-136
254877;1;3;0;399;3854;276;-1823;-226;57;-124
254887;1;3;0;399;3868;272;-1808;-216;69;-116
254897;1;3;0;399;3867;253;-1802;-198;39;-91
254907;1;3;0;399;3874;256;-1806;-200;29;-85
254917;1;3;0;399;3871;259;-1798;-208;43;-95
254927;1;3;0;399;3877;246;-1802;-213;17;-90
254937;1;3;0;399;3882;238;-1819;-223;16;-97
254947;1;3;0;399;3898;277;-1833;-224;18;-105
254957;1;3;0;399;3891;272;-1822;-237;45;-147
254967;1;3;0;399;3879;261;-1810;-233;53;-157
254977;1;3;0;399;3874;271;-1818;-235;74;-152
254987;1;3;0;399;3868;269;-1788;-238;90;-144
254997;1;3;0;399;3875;269;-1816;-223;98;-129
255007;1;3;0;399;3876;262;-1773;-220;96;-141
255017;1;3;0;399;3888;275;-1788;-207;83;-144
255027;1;3;0;399;3896;281;-1791;-218;74;-145
255037;1;3;0;399;3893;276;-1788;-216;60;-142
255047;1;3;0;399;3898;278;-1795;-233;64;-141
255057;1;3;0;399;3891;266;-1808;-238;66;-152
255067;1;3;0;399;3878;272;-1784;-246;68;-149
255077;1;3;0;399;3866;297;-1787;-237;101;-143
255087;1;3;0;399;3894;292;-1774;-246;124;-181
255097;1;3;0;399;3895;289;-1782;-251;113;-185
255107;1;3;0;399;3904;272;-1808;-272;132;-207
255117;1;3;0;399;3883;271;-1779;-333;225;-234
255127;1;3;0;399;3874;269;-1780;-290;163;-205
255137;1;3;0;399;3904;287;-1783;-253;102;-167
255147;1;3;0;399;3930;311;-1747;-248;92;-159
255157;1;3;0;399;3897;316;-1762;-249;79;-166
255167;1;3;0;399;3889;298;-1748;-233;69;-166
255177;1;3;0;399;3912;313;-1721;-347;130;-261
255187;1;3;0;399;3896;307;-1784;-201;63;-158
255197;1;3;0;399;3895;323;-1781;-179;36;-155
255207;1;3;0;399;3916;299;-1784;-218;66;-131
255217;1;3;0;399;3907;277;-1765;-229;51;-139
255227;1;3;0;399;3902;298;-1763;-230;55;-147
255237;1;3;0;399;3904;285;-1737;-237;76;-139
255247;1;3;0;399;3909;283;-1761;-233;46;-123
255257;1;3;0;399;3937;318;-1751;-235;31;-150
255267;1;3;0;399;3895;292;-1745;-303;108;-241
255277;1;3;0;399;3893;332;-1769;-185;6;-119
255287;1;3;0;399;3917;328;-1763;-161;-31;-64
255297;1;3;0;399;3911;323;-1753;-171;-35;-52
255307;1;3;0;399;3910;316;-1740;-160;-53;-58
255317;1;3;0;399;3921;327;-1712;-146;-43;-73
255327;1;3;0;399;3905;322;-1745;-161;-5;-99
255337;1;3;0;400;3892;310;-1746;-169;36;-142
255347;1;3;0;400;3884;293;-1734;-205;82;-160
255357;1;3;0;400;3882;310;-1735;-230;129;-187
255367;1;3;0;400;3885;316;-1720;-231;104;-146
255377;1;3;0;400;3898;300;-1746;-203;91;-136
255387;1;3;0;400;3915;311;-1730;-177;53;-133
255397;1;3;0;400;3915;319;-1738;-146;6;-98
255407;1;3;0;400;3936;319;-1730;-134;-14;-77
255417;1;3;0;400;3927;307;-1713;-137;-50;-58
255427;1;3;0;400;3935;323;-1694;-136;-64;-53
255437;1;3;0;400;3924;326;-1691;-148;-66;-54
255447;1;3;0;400;3892;341;-1694;-156;-69;-62
255457;1;3;0;400;3920;330;-1718;-153;-62;-69
255467;1;3;0;400;3907;329;-1736;-152;-49;-83
255477;1;3;0;400;3912;324;-1753;-164;-33;-85
255487;1;3;0;400;3925;310;-1732;-160;-45;-80
255497;1;3;0;400;3919;318;-1732;-172;-42;-88
255507;1;3;0;400;3936;331;-1736;-158;-68;-87
255517;1;3;0;400;3912;329;-1737;-160;-77;-92
255527;1;3;0;400;3893;320;-1730;-163;-85;-70
255537;1;3;0;400;3908;318;-1730;-150;-98;-46
255547;1;3;0;400;3894;318;-1723;-149;-94;-51
255557;1;3;0;400;3901;302;-1727;-156;-92;-59
255567;1;3;0;400;3907;324;-1722;-135;-92;-44
255577;1;3;0;400;3899;318;-1730;-130;-81;-47
255587;1;3;0;400;3914;308;-1724;-149;-82;-57
255597;1;3;0;400;3927;310;-1730;-158;-84;-83
255607;1;3;0;400;3922;320;-1713;-163;-82;-82
255617;1;3;0;400;3905;327;-1736;-170;-78;-59
255627;1;3;0;400;3916;329;-1700;-165;-65;-52
255637;1;3;0;400;3908;326;-1704;-149;-72;-56
255647;1;3;0;400;3912;321;-1718;-135;-81;-76
255657;1;3;0;400;3932;310;-1744;-145;-91;-83
255667;1;3;0;400;3944;301;-1750;-160;-106;-90
255677;1;3;0;400;3953;322;-1748;-177;-140;-101
255687;1;3;0;400;3927;326;-1740;-167;-166;-88
255697;1;3;0;400;3893;333;-1712;-142;-183;-62
255707;1;3;0;400;3870;335;-1711;-130;-165;-34
255717;1;3;0;400;3896;341;-1730;-112;-144;6
255727;1;3;0;400;3889;311;-1730;-113;-126;20
255737;1;3;0;400;3916;286;-1729;-129;-117;19
255747;1;3;0;400;3927;281;-1743;-158;-112;-11
255757;1;3;0;400;3922;279;-1758;-185;-99;-44
255767;1;3;0;400;3905;317;-1736;-189;-93;-97
255777;1;3;0;400;3893;337;-1736;-176;-64;-129
255787;1;3;0;400;3880;340;-1735;-165;-46;-136
255797;1;3;0;400;3882;340;-1738;-137;-36;-131
255807;1;3;0;400;3908;334;-1724;-132;-39;-110
255817;1;3;0;400;3896;316;-1713;-130;-58;-82
255827;1;3;0;400;3929;305;-1732;-132;-92;-76
255837;1;3;0;401;3964;302;-1737;-153;-133;-85
255847;1;3;0;401;3956;316;-1729;-159;-156;-110
255857;1;3;0;401;3958;336;-1741;-146;-171;-114
255867;1;3;0;401;3949;318;-1746;-157;-190;-133
255877;1;3;0;401;3935;326;-1752;-157;-204;-137
255887;1;3;0;401;3923;330;-1733;-142;-219;-132
255897;1;3;0;401;3917;338;-1751;-109;-213;-118
255907;1;3;0;401;3919;333;-1744;-107;-204;-102
255917;1;3;0;401;3912;322;-1731;-111;-201;-99
255927;1;3;0;401;3912;300;-1732;-115;-203;-91
255937;1;3;0;401;3925;307;-1740;-119;-231;-77
255947;1;3;0;401;3920;305;-1745;-113;-266;-71
255957;1;3;0;401;3930;324;-1734;-106;-307;-69
255967;1;3;0;401;3909;348;-1748;-78;-327;-83
255977;1;3;0;401;3896;337;-1754;-70;-305;-82
255987;1;3;0;401;3890;325;-1749;-58;-298;-74
255997;1;3;0;401;3884;329;-1758;-60;-279;-55
256007;1;3;0;401;3898;304;-1756;-59;-283;-53
256017;1;3;0;401;3905;294;-1757;-75;-272;-61
256027;1;3;0;401;3911;316;-1762;-77;-282;-77
256037;1;3;0;401;3900;326;-1733;-88;-290;-84
256047;1;3;0;401;3902;322;-1749;-81;-288;-98
256057;1;3;0;401;3896;331;-1765;-87;-294;-105
256067;1;3;0;401;3906;324;-1755;-67;-288;-90
256077;1;3;0;401;3904;317;-1762;-64;-272;-72
256087;1;3;0;401;3902;323;-1769;-73;-266;-64
256097;1;3;0;401;3895;310;-1779;-76;-253;-54
256107;1;3;0;401;3898;315;-1782;-79;-243;-57
256117;1;3;0;401;3897;319;-1773;-84;-239;-50
256127;1;3;0;401;3892;322;-1763;-83;-255;-56
256137;1;3;0;401;3900;317;-1763;-83;-249;-67
256147;1;3;0;401;3892;328;-1777;-86;-273;-66
256157;1;3;0;401;3889;347;-1765;-79;-257;-67
256167;1;3;0;401;3897;344;-1773;-58;-247;-43
256177;1;3;0;401;3896;321;-1772;-61;-248;-12
256187;1;3;0;401;3882;325;-1771;-65;-260;-17
256197;1;3;0;401;3863;319;-1784;-62;-254;13
256207;1;3;0;401;3869;284;-1778;-61;-261;72
256217;1;3;0;401;3888;267;-1782;-47;-287;103
256227;1;3;0;401;3889;290;-1762;7;-347;158
256237;1;3;0;401;3857;314;-1788;-17;-316;98
256247;1;3;0;401;3857;339;-1780;-36;-305;61
256257;1;3;0;401;3872;319;-1808;-54;-354;100
256267;1;3;0;401;3878;310;-1821;-84;-253;-15
256277;1;3;0;401;3869;303;-1822;-78;-225;-42
256287;1;3;0;401;3873;298;-1820;-85;-188;-39
256297;1;3;0;401;3854;288;-1807;-87;-165;-40
256307;1;3;0;401;3862;278;-1809;-95;-182;-17
256317;1;3;0;401;3889;289;-1781;-90;-210;12
256327;1;3;0;401;3861;311;-1786;-73;-234;50
256337;1;3;0;402;3861;305;-1783;-52;-289;70
256347;1;3;0;402;3884;283;-1814;-45;-298;86
256357;1;3;0;402;3884;292;-1813;-35;-276;68
256367;1;3;0;402;3869;298;-1788;-30;-288;72
256377;1;3;0;402;3871;280;-1808;-69;-253;44
256387;1;3;0;402;3879;279;-1823;-104;-212;8
256397;1;3;0;402;3864;265;-1810;-130;-177;-34
256407;1;3;0;402;3853;283;-1818;-139;-149;-69
256417;1;3;0;402;3846;293;-1799;-122;-172;-74
256427;1;3;0;402;3849;300;-1811;-103;-174;-57
256437;1;3;0;402;3843;300;-1813;-91;-178;-35
256447;1;3;0;402;3866;308;-1795;-64;-175;-14
256457;1;3;0;402;3869;297;-1811;-46;-183;4
256467;1;3;0;402;3859;284;-1818;-66;-171;5
256477;1;3;0;402;3869;275;-1830;-84;-170;-5
256487;1;3;0;402;3856;279;-1833;-102;-161;-9
256497;1;3;0;402;3861;262;-1834;-123;-139;-11
256507;1;3;0;402;3866;276;-1811;-119;-171;-6
256517;1;3;0;402;3875;260;-1807;-124;-162;-25
256527;1;3;0;402;3851;278;-1804;-114;-147;-32
256537;1;3;0;402;3847;285;-1844;-114;-118;-7
256547;1;3;0;402;3843;277;-1811;-112;-108;9
256557;1;3;0;402;3850;269;-1810;-106;-119;-4
256567;1;3;0;402;3850;284;-1796;-107;-112;-37
256577;1;3;0;402;3854;285;-1811;-115;-99;-52
256587;1;3;0;402;3850;264;-1793;-118;-89;-47
256597;1;3;0;402;3867;263;-1822;-138;-72;-39
256607;1;3;0;402;3853;273;-1834;-149;-54;-48
256617;1;3;0;402;3868;268;-1843;-165;-61;-54
256627;1;3;0;402;3880;275;-1829;-156;-70;-63
256637;1;3;0;402;3863;270;-1845;-173;-64;-70
256647;1;3;0;402;3861;274;-1828;-169;-59;-75
256657;1;3;0;402;3875;270;-1833;-151;-77;-79
256667;1;3;0;402;3867;277;-1831;-143;-80;-74
256677;1;3;0;402;3866;293;-1802;-136;-86;-64
256687;1;3;0;402;3861;276;-1803;-144;-83;-57
256697;1;3;0;402;3867;270;-1794;-146;-95;-46
256707;1;3;0;402;3874;266;-1803;-146;-84;-37
256717;1;3;0;402;3878;267;-1807;-149;-81;-42
256727;1;3;0;402;3858;265;-1812;-155;-69;-60
256737;1;3;0;402;3857;270;-1820;-168;-60;-70
256747;1;3;0;402;3856;274;-1829;-159;-53;-70
256757;1;3;0;402;3862;264;-1818;-158;-63;-72
256767;1;3;0;402;3863;282;-1817;-140;-64;-74
256777;1;3;0;402;3872;296;-1812;-142;-74;-74
256787;1;3;0;402;3855;284;-1832;-144;-83;-74
256797;1;3;0;402;3879;271;-1815;-148;-87;-64
256807;1;3;0;402;3866;261;-1814;-154;-73;-61
256817;1;3;0;402;3861;255;-1815;-149;-74;-59
256827;1;3;0;402;3868;258;-1819;-155;-78;-63
256837;1;3;0;403;3852;263;-1833;-166;-77;-87
256847;1;3;0;403;3854;280;-1810;-161;-62;-95
256857;1;3;0;403;3871;277;-1808;-151;-66;-98
256867;1;3;0;403;3873;285;-1795;-160;-55;-101
256877;1;3;0;403;3858;282;-1789;-148;-57;-80
256887;1;3;0;403;3873;268;-1802;-145;-67;-54
256897;1;3;0;403;3869;257;-1819;-151;-77;-39
256907;1;3;0;403;3888;265;-1812;-143;-83;-40
256917;1;3;0;403;3898;260;-1819;-162;-83;-65
256927;1;3;0;403;3886;270;-1832;-165;-72;-81
256937;1;3;0;403;3867;273;-1830;-169;-59;-109
256947;1;3;0;403;3868;279;-1821;-184;-44;-116
256957;1;3;0;403;3840;280;-1809;-174;-43;-109
256967;1;3;0;403;3869;274;-1816;-172;-47;-96
256977;1;3;0;403;3871;274;-1798;-161;-70;-85
256987;1;3;0;403;3877;263;-1829;-152;-99;-79
256997;1;3;0;403;3886;286;-1811;-148;-105;-66
257007;1;3;0;403;3883;276;-1831;-146;-86;-58
257017;1;3;0;403;3884;268;-1813;-142;-72;-50
257027;1;3;0;403;3885;257;-1804;-149;-63;-56
257037;1;3;0;403;3849;266;-1800;-157;-63;-65
257047;1;3;0;403;3839;272;-1802;-172;-43;-60
257057;1;3;0;403;3868;248;-1811;-171;-26;-69
257067;1;3;0;403;3849;275;-1811;-167;-19;-91
257077;1;3;0;403;3852;300;-1794;-154;-16;-102
257087;1;3;0;403;3867;301;-1793;-156;16;-99
257097;1;3;0;403;3880;283;-1811;-159;18;-90
257107;1;3;0;403;3899;266;-1805;-161;-4;-86
257117;1;3;0;403;3907;258;-1823;-173;-18;-97
257127;1;3;0;403;3898;267;-1834;-180;-39;-110
257137;1;3;0;403;3894;285;-1834;-173;-34;-101
257147;1;3;0;403;3889;287;-1827;-174;-19;-91
257157;1;3;0;403;3867;284;-1799;-185;-5;-96
257167;1;3;0;403;3860;286;-1792;-179;-7;-88
257177;1;3;0;403;3861;283;-1787;-176;-11;-76
257187;1;3;0;403;3878;277;-1789;-168;-21;-55
257197;1;3;0;403;3903;277;-1798;-173;-44;-46
257207;1;3;0;403;3889;277;-1802;-175;-46;-54
257217;1;3;0;403;3902;273;-1810;-183;-37;-63
257227;1;3;0;403;3886;273;-1807;-173;-26;-65
257237;1;3;0;403;3882;272;-1802;-188;-23;-90
257247;1;3;0;403;3867;269;-1796;-184;-25;-97
257257;1;3;0;403;3853;280;-1785;-177;-23;-95
257267;1;3;0;403;3875;285;-1790;-175;-31;-100
257277;1;3;0;403;3879;285;-1786;-167;-37;-117
257287;1;3;0;403;3891;279;-1801;-167;-29;-119
257297;1;3;0;403;3873;280;-1801;-184;-18;-129
257307;1;3;0;403;3885;271;-1795;-204;-15;-120
257317;1;3;0;403;3872;275;-1799;-221;-15;-118
257327;1;3;0;403;3878;308;-1801;-219;-24;-117
257337;1;3;0;404;3873;321;-1793;-217;1;-112
257347;1;3;0;404;3872;299;-1786;-183;-20;-102
257357;1;3;0;404;3895;277;-1772;-175;-62;-104
257367;1;3;0;404;3919;289;-1774;-158;-66;-107
257377;1;3;0;404;3902;289;-1783;-155;-70;-108
257387;1;3;0;404;3895;296;-1785;-160;-52;-88
257397;1;3;0;404;3896;279;-1802;-176;-45;-77
257407;1;3;0;404;3894;278;-1766;-174;-69;-76
257417;1;3;0;404;3890;277;-1771;-177;-76;-75
257427;1;3;0;404;3876;292;-1781;-174;-76;-69
257437;1;3;0;404;3861;280;-1784;-176;-73;-71
257447;1;3;0;404;3851;294;-1779;-186;-46;-80
257457;1;3;0;404;3872;291;-1801;-177;-30;-93
257467;1;3;0;404;3876;298;-1810;-179;-16;-103
257477;1;3;0;404;3888;325;-1791;-164;-9;-88
257487;1;3;0;404;3882;305;-1783;-153;-5;-76
257497;1;3;0;404;3898;297;-1771;-163;-12;-82
257507;1;3;0;404;3901;281;-1756;-163;-18;-84
257517;1;3;0;404;3888;290;-1752;-172;-21;-98
257527;1;3;0;404;3903;275;-1779;-195;-24;-118
257537;1;3;0;404;3904;285;-1790;-202;-27;-136
257547;1;3;0;404;3886;294;-1807;-192;-21;-148
257557;1;3;0;404;3893;302;-1830;-196;-18;-148
257567;1;3;0;404;3897;304;-1807;-187;6;-160
257577;1;3;0;404;3892;316;-1779;-171;18;-157
257587;1;3;0;404;3898;315;-1757;-169;14;-135
257597;1;3;0;404;3893;294;-1741;-155;1;-122
257607;1;3;0;404;3901;287;-1765;-153;-29;-122
257617;1;3;0;404;3918;293;-1774;-181;-38;-124
257627;1;3;0;404;3915;291;-1781;-188;-29;-126
257637;1;3;0;404;3909;295;-1792;-188;-14;-119
257647;1;3;0;404;3915;297;-1778;-198;6;-125
257657;1;3;0;404;3896;298;-1758;-189;-6;-123
257667;1;3;0;404;3871;301;-1748;-175;-20;-109
257677;1;3;0;404;3877;309;-1759;-164;-31;-102
257687;1;3;0;404;3888;309;-1766;-172;-39;-91
257697;1;3;0;404;3878;307;-1768;-172;-36;-87
257707;1;3;0;404;3914;307;-1767;-168;-36;-94
257717;1;3;0;404;3914;286;-1800;-181;-23;-120
257727;1;3;0;404;3915;288;-1794;-176;-18;-155
257737;1;3;0;404;3909;279;-1797;-176;-24;-183
257747;1;3;0;404;3891;282;-1809;-170;-23;-200
257757;1;3;0;404;3879;314;-1757;-147;-19;-225
257767;1;3;0;404;3868;355;-1743;-132;11;-230
257777;1;3;0;404;3871;345;-1740;-140;70;-211
257787;1;3;0;404;3903;327;-1764;-147;77;-200
257797;1;3;0;404;3929;310;-1758;-151;55;-200
257807;1;3;0;404;3918;297;-1742;-176;23;-197
257817;1;3;0;404;3909;325;-1741;-178;-21;-197
257827;1;3;0;404;3911;312;-1725;-168;-52;-206
257837;1;3;0;405;3899;317;-1751;-155;-55;-211
257847;1;3;0;405;3905;307;-1755;-142;-52;-201
257857;1;3;0;405;3896;303;-1777;-161;-35;-186
257867;1;3;0;405;3888;308;-1782;-182;-37;-169
257877;1;3;0;405;3887;324;-1798;-174;-41;-151
257887;1;3;0;405;3886;333;-1788;-172;-47;-128
257897;1;3;0;405;3887;334;-1761;-180;-62;-131
257907;1;3;0;405;3907;334;-1755;-190;-49;-181
257917;1;3;0;405;3879;322;-1753;-181;-46;-179
257927;1;3;0;405;3899;320;-1754;-158;-58;-139
257937;1;3;0;405;3923;304;-1748;-145;-80;-124
257947;1;3;0;405;3908;323;-1757;-138;-87;-136
257957;1;3;0;405;3910;358;-1740;-124;-85;-137
257967;1;3;0;405;3897;366;-1756;-124;-78;-124
257977;1;3;0;405;3900;360;-1722;-128;-75;-105
257987;1;3;0;405;3916;355;-1718;-135;-108;-104
257997;1;3;0;405;3910;342;-1711;-132;-127;-105
258007;1;3;0;405;3932;347;-1730;-146;-111;-104
258017;1;3;0;405;3942;354;-1760;-155;-102;-90
258027;1;3;0;405;3902;349;-1749;-148;-100;-70
258037;1;3;0;405;3892;336;-1781;-147;-109;-49
258047;1;3;0;405;3906;328;-1777;-150;-131;-36
258057;1;3;0;405;3914;337;-1781;-138;-148;-51
258067;1;3;0;405;3918;313;-1765;-134;-150;-59
258077;1;3;0;405;3922;303;-1795;-138;-159;-63
258087;1;3;0;405;3881;303;-1781;-142;-148;-68
258097;1;3;0;405;3890;323;-1774;-139;-136;-61
258107;1;3;0;405;3874;338;-1751;-143;-131;-70
258117;1;3;0;405;3869;332;-1726;-129;-128;-91
258127;1;3;0;405;3868;324;-1724;-127;-125;-110
258137;1;3;0;405;3896;306;-1737;-115;-118;-140
258147;1;3;0;405;3926;309;-1779;-120;-113;-183
258157;1;3;0;405;3917;318;-1779;-143;-91;-208
258167;1;3;0;405;3901;329;-1798;-142;-101;-207
258177;1;3;0;405;3883;336;-1792;-150;-102;-186
258187;1;3;0;405;3892;342;-1773;-136;-118;-143
258197;1;3;0;405;3891;352;-1747;-117;-146;-121
258207;1;3;0;405;3897;363;-1731;-107;-148;-110
258217;1;3;0;405;3916;364;-1711;-96;-136;-107
258227;1;3;0;405;3922;347;-1716;-107;-139;-107
258237;1;3;0;405;3939;336;-1755;-112;-152;-100
258247;1;3;0;405;3915;340;-1767;-113;-167;-85
258257;1;3;0;405;3897;372;-1782;-117;-165;-38
258267;1;3;0;405;3877;372;-1756;-99;-161;13
258277;1;3;0;405;3882;348;-1757;-97;-163;28
258287;1;3;0;405;3902;331;-1751;-95;-163;11
258297;1;3;0;405;3924;329;-1741;-92;-154;-32
258307;1;3;0;405;3862;301;-1775;-110;-106;-96
258317;1;3;0;405;3827;308;-1832;-96;-86;-128
258327;1;3;0;405;3891;334;-1807;-105;-108;-89
258337;1;3;0;406;3895;345;-1771;-117;-93;-51
258347;1;3;0;406;3896;345;-1742;-125;-99;-33
258357;1;3;0;406;3888;348;-1742;-142;-114;-59
258367;1;3;0;406;3871;325;-1759;-128;-106;-72
258377;1;3;0;406;3877;307;-1810;-133;-120;-97
258387;1;3;0;406;3896;300;-1814;-155;-98;-124
258397;1;3;0;406;3884;325;-1805;-150;-83;-124
258407;1;3;0;406;3861;328;-1776;-140;-70;-112
258417;1;3;0;406;3865;349;-1769;-123;-79;-119
258427;1;3;0;406;3854;355;-1738;-129;-84;-130
258437;1;3;0;406;3873;360;-1717;-124;-79;-147
258447;1;3;0;406;3901;362;-1740;-125;-71;-148
258457;1;3;0;406;3919;354;-1732;-126;-77;-136
258467;1;3;0;406;3928;360;-1731;-133;-82;-141
258477;1;3;0;406;3910;353;-1761;-133;-104;-136
258487;1;3;0;406;3910;350;-1751;-141;-122;-105
258497;1;3;0;406;3905;362;-1742;-131;-133;-90
258507;1;3;0;406;3891;372;-1725;-127;-146;-89
258517;1;3;0;406;3882;369;-1713;-119;-148;-90
258527;1;3;0;406;3901;349;-1719;-132;-154;-79
258537;1;3;0;406;3895;350;-1743;-138;-158;-63
258547;1;3;0;406;3886;349;-1772;-139;-157;-45
258557;1;3;0;406;3893;359;-1745;-139;-148;-32
258567;1;3;0;406;3887;364;-1750;-118;-166;-38
258577;1;3;0;406;3893;353;-1751;-108;-161;-44
258587;1;3;0;406;3903;335;-1730;-126;-155;-57
258597;1;3;0;406;3889;328;-1750;-140;-135;-67
258607;1;3;0;406;3880;323;-1777;-156;-129;-61
258617;1;3;0;406;3886;336;-1784;-151;-130;-39
258627;1;3;0;406;3849;328;-1756;-133;-131;-23
258637;1;3;0;406;3841;347;-1749;-116;-140;-10
258647;1;3;0;406;3841;348;-1755;-110;-127;-23
258657;1;3;0;406;3853;355;-1772;-111;-113;-26
258667;1;3;0;406;3872;328;-1764;-117;-95;-30
258677;1;3;0;406;3873;315;-1780;-122;-95;-26
258687;1;3;0;406;3871;313;-1809;-134;-90;-26
258697;1;3;0;406;3883;312;-1794;-129;-95;-29
258707;1;3;0;406;3859;319;-1800;-132;-98;-44
258717;1;3;0;406;3862;339;-1780;-129;-98;-62
258727;1;3;0;406;3885;350;-1749;-127;-83;-77
258737;1;3;0;406;3876;336;-1758;-126;-75;-93
258747;1;3;0;406;3866;342;-1754;-139;-72;-87
258757;1;3;0;406;3896;326;-1764;-156;-57;-77
258767;1;3;0;406;3889;323;-1781;-164;-60;-63
258777;1;3;0;406;3900;326;-1773;-158;-61;-58
258787;1;3;0;406;3911;320;-1768;-150;-86;-66
258797;1;3;0;406;3918;346;-1749;-140;-113;-105
258807;1;3;0;406;3918;371;-1737;-141;-110;-157
258817;1;3;0;406;3915;372;-1752;-146;-82;-167
258827;1;3;0;406;3881;363;-1776;-152;-39;-108
258837;1;3;0;407;3884;334;-1759;-165;-21;-31
258847;1;3;0;407;3880;313;-1763;-161;-52;-3
258857;1;3;0;407;3861;333;-1770;-170;-56;-10
258867;1;3;0;407;3881;329;-1806;-157;-72;5
258877;1;3;0;407;3898;321;-1813;-147;-80;-10
258887;1;3;0;407;3882;327;-1800;-141;-76;-44
258897;1;3;0;407;3876;342;-1764;-130;-65;-69
258907;1;3;0;407;3867;353;-1776;-136;-41;-70
258917;1;3;0;407;3837;342;-1793;-153;-17;-70
258927;1;3;0;407;3852;341;-1774;-164;-18;-59
258937;1;3;0;407;3861;346;-1754;-160;-35;-57
258947;1;3;0;407;3861;353;-1742;-142;-55;-54
258957;1;3;0;407;3897;358;-1733;-118;-60;-52
258967;1;3;0;407;3915;325;-1720;-115;-46;-69
258977;1;3;0;407;3934;329;-1740;-137;-38;-107
258987;1;3;0;407;3926;338;-1747;-180;-5;-118
258997;1;3;0;407;3915;337;-1773;-192;-5;-96
259007;1;3;0;407;3894;333;-1753;-190;-23;-62
259017;1;3;0;407;3894;332;-1750;-184;-63;-44
259027;1;3;0;407;3880;345;-1736;-148;-91;-45
259037;1;3;0;407;3896;363;-1719;-124;-87;-55
259047;1;3;0;407;3913;375;-1723;-107;-69;-60
259057;1;3;0;407;3933;349;-1748;-115;-64;-60
259067;1;3;0;407;3930;328;-1761;-126;-58;-45
259077;1;3;0;407;3936;336;-1794;-140;-71;-8
259087;1;3;0;407;3901;339;-1794;-145;-91;16
259097;1;3;0;407;3889;334;-1781;-143;-114;32
259107;1;3;0;407;3880;336;-1782;-127;-146;44
259117;1;3;0;407;3868;318;-1759;-118;-163;29
259127;1;3;0;407;3880;349;-1723;-128;-150;-4
259137;1;3;0;407;3878;348;-1730;-132;-120;-32
259147;1;3;0;407;3880;334;-1752;-145;-94;-49
259157;1;3;0;407;3878;323;-1788;-147;-73;-34
259167;1;3;0;407;3874;300;-1774;-157;-77;-17
259177;1;3;0;407;3894;297;-1778;-159;-109;-27
259187;1;3;0;407;3906;338;-1767;-147;-118;-44
259197;1;3;0;407;3908;337;-1758;-128;-111;-43
259207;1;3;0;407;3916;323;-1778;-136;-108;-69
259217;1;3;0;407;3921;306;-1772;-142;-107;-94
259227;1;3;0;407;3907;316;-1759;-155;-105;-94
259237;1;3;0;407;3903;322;-1743;-160;-92;-73
259247;1;3;0;407;3868;351;-1744;-168;-77;-71
259257;1;3;0;407;3859;345;-1753;-155;-63;-66
259267;1;3;0;407;3892;352;-1731;-153;-63;-68
259277;1;3;0;407;3904;346;-1768;-147;-63;-67
259287;1;3;0;407;3911;323;-1775;-162;-58;-70
259297;1;3;0;407;3916;318;-1772;-166;-70;-63
259307;1;3;0;407;3921;336;-1755;-167;-67;-60
259317;1;3;0;407;3892;315;-1756;-158;-92;-46
259327;1;3;0;407;3893;327;-1767;-155;-94;-44
259337;1;3;0;408;3897;335;-1748;-157;-83;-59
259347;1;3;0;408;3885;334;-1747;-149;-75;-58
259357;1;3;0;408;3897;340;-1747;-139;-84;-67
259367;1;3;0;408;3875;320;-1762;-139;-87;-64
259377;1;3;0;408;3894;315;-1752;-142;-84;-61
259387;1;3;0;408;3913;311;-1755;-155;-87;-64
259397;1;3;0;408;3908;315;-1748;-161;-85;-71
259407;1;3;0;408;3896;334;-1776;-166;-69;-84
259417;1;3;0;408;3884;344;-1752;-166;-68;-95
259427;1;3;0;408;3865;345;-1735;-173;-53;-105
259437;1;3;0;408;3876;335;-1725;-168;-47;-107
259447;1;3;0;408;3903;330;-1736;-166;-42;-100
259457;1;3;0;408;3898;329;-1737;-164;-34;-112
259467;1;3;0;408;3910;323;-1752;-156;-42;-99
259477;1;3;0;408;3908;318;-1764;-171;-50;-86
259487;1;3;0;408;3893;315;-1782;-177;-56;-80
259497;1;3;0;408;3907;339;-1785;-184;-58;-68
259507;1;3;0;408;3904;344;-1761;-193;-41;-72
259517;1;3;0;408;3889;346;-1732;-183;-43;-79
259527;1;3;0;408;3909;342;-1729;-166;-50;-107
259537;1;3;0;408;3905;345;-1750;-154;-53;-126
259547;1;3;0;408;3899;334;-1751;-165;-46;-112
259557;1;3;0;408;3898;335;-1735;-171;-42;-80
259567;1;3;0;408;3872;320;-1719;-173;-65;-52
259577;1;3;0;408;3887;340;-1732;-174;-76;-40
259587;1;3;0;408;3885;352;-1739;-174;-67;-44
259597;1;3;0;408;3895;335;-1730;-167;-75;-56
259607;1;3;0;408;3917;331;-1731;-161;-78;-95
259617;1;3;0;408;3916;332;-1748;-177;-54;-134
259627;1;3;0;408;3905;342;-1748;-192;-38;-158
259637;1;3;0;408;3893;343;-1765;-198;-15;-148
259647;1;3;0;408;3891;347;-1747;-209;1;-116
259657;1;3;0;408;3858;352;-1748;-204;24;-95
259667;1;3;0;408;3895;350;-1742;-205;15;-75
259677;1;3;0;408;3910;330;-1754;-199;5;-65
259687;1;3;0;408;3923;328;-1750;-190;-2;-71
259697;1;3;0;408;3932;348;-1740;-183;-12;-78
259707;1;3;0;408;3929;328;-1728;-183;-22;-90
259717;1;3;0;408;3910;334;-1730;-171;-39;-88
259727;1;3;0;408;3901;346;-1728;-181;-35;-80
259737;1;3;0;408;3878;352;-1750;-174;-32;-69
259747;1;3;0;408;3877;358;-1730;-165;-37;-72
259757;1;3;0;408;3889;333;-1716;-158;-45;-81
259767;1;3;0;408;3905;318;-1718;-159;-58;-108
259777;1;3;0;408;3920;338;-1716;-156;-39;-148
259787;1;3;0;408;3907;361;-1724;-170;0;-156
259797;1;3;0;408;3905;360;-1744;-193;42;-160
259807;1;3;0;408;3913;317;-1750;-248;67;-197
259817;1;3;0;408;3906;327;-1755;-229;60;-167
259827;1;3;0;408;3875;326;-1736;-206;44;-111
259837;1;3;0;409;3930;317;-1734;-200;8;-103
259847;1;3;0;409;3921;332;-1712;-167;-21;-128
259857;1;3;0;409;3920;348;-1744;-142;-26;-123
259867;1;3;0;409;3916;361;-1757;-141;-16;-91
259877;1;3;0;409;3891;370;-1744;-137;-3;-68
259887;1;3;0;409;3899;358;-1719;-145;-6;-51
259897;1;3;0;409;3913;365;-1698;-149;-26;-70
259907;1;3;0;409;3929;364;-1707;-129;-40;-134
259917;1;3;0;409;3936;367;-1706;-131;-30;-170
259927;1;3;0;409;3936;353;-1716;-148;-33;-188
259937;1;3;0;409;3917;351;-1727;-145;-45;-170
259947;1;3;0;409;3920;364;-1721;-153;-69;-144
259957;1;3;0;409;3927;361;-1699;-162;-79;-114
259967;1;3;0;409;3939;364;-1686;-148;-98;-94
259977;1;3;0;409;3955;353;-1701;-125;-141;-85
259987;1;3;0;409;3941;350;-1700;-113;-176;-96
259997;1;3;0;409;3947;347;-1711;-116;-190;-80
260007;1;3;0;409;3923;350;-1731;-118;-201;-63
260017;1;3;0;409;3921;355;-1745;-112;-206;-46
260027;1;3;0;409;3908;358;-1746;-123;-189;-46
260037;1;3;0;409;3903;351;-1745;-131;-183;-36
260047;1;3;0;409;3883;341;-1752;-114;-189;-37
260057;1;3;0;409;3857;334;-1753;-109;-183;-47
260067;1;3;0;409;3861;347;-1741;-126;-158;-61
260077;1;3;0;409;3875;348;-1757;-139;-139;-71
260087;1;3;0;409;3888;363;-1751;-138;-129;-83
260097;1;3;0;409;3889;346;-1748;-128;-133;-87
260107;1;3;0;409;3894;345;-1751;-125;-141;-98
260117;1;3;0;409;3903;351;-1697;-124;-155;-115
260127;1;3;0;409;3924;369;-1694;-117;-167;-146
260137;1;3;0;409;3919;368;-1712;-112;-185;-162
260147;1;3;0;409;3928;373;-1717;-122;-180;-149
260157;1;3;0;409;3920;386;-1718;-116;-152;-110
260167;1;3;0;409;3891;362;-1755;-123;-110;-47
260177;1;3;0;409;3919;355;-1760;-133;-125;33
260187;1;3;0;409;3920;317;-1756;-125;-145;60
260197;1;3;0;409;3901;336;-1751;-121;-152;37
260207;1;3;0;409;3896;339;-1732;-110;-147;13
260217;1;3;0;409;3900;347;-1745;-109;-154;-15
260227;1;3;0;409;3891;363;-1758;-112;-150;-43
260237;1;3;0;409;3894;348;-1750;-108;-129;-37
260247;1;3;0;409;3884;339;-1751;-98;-120;-27
260257;1;3;0;409;3887;363;-1726;-95;-118;-53
260267;1;3;0;409;3913;361;-1690;-90;-128;-99
260277;1;3;0;409;3909;369;-1691;-85;-135;-135
260287;1;3;0;409;3935;373;-1694;-91;-150;-138
260297;1;3;0;409;3935;351;-1708;-100;-130;-94
260307;1;3;0;409;3939;341;-1716;-110;-131;-51
260317;1;3;0;409;3920;340;-1741;-133;-146;-24
260327;1;3;0;409;3910;344;-1744;-145;-162;-8
260337;1;3;0;410;3885;344;-1757;-132;-179;-9
260347;1;3;0;410;3885;343;-1755;-123;-182;-21
260357;1;3;0;410;3875;351;-1779;-110;-183;-17
260367;1;3;0;410;3872;341;-1789;-96;-169;-11
260377;1;3;0;410;3879;341;-1750;-103;-159;-23
260387;1;3;0;410;3871;344;-1756;-106;-143;-27
260397;1;3;0;410;3864;333;-1745;-124;-139;-30
260407;1;3;0;410;3875;341;-1736;-132;-133;-48
260417;1;3;0;410;3862;340;-1736;-140;-126;-74
260427;1;3;0;410;3869;357;-1732;-139;-128;-102
260437;1;3;0;410;3901;355;-1735;-136;-115;-129
260447;1;3;0;410;3901;349;-1741;-147;-98;-143
260457;1;3;0;410;3900;346;-1741;-159;-88;-119
260467;1;3;0;410;3919;346;-1736;-158;-86;-82
260477;1;3;0;410;3900;359;-1723;-160;-99;-49
260487;1;3;0;410;3910;364;-1723;-153;-100;-38
260497;1;3;0;410;3909;366;-1720;-140;-122;-30
260507;1;3;0;410;3904;344;-1726;-142;-136;-37
260517;1;3;0;410;3898;354;-1753;-139;-112;-61
260527;1;3;0;410;3899;350;-1743;-147;-99;-63
260537;1;3;0;410;3888;343;-1750;-166;-84;-47
260547;1;3;0;410;3885;338;-1740;-170;-84;-37
260557;1;3;0;410;3881;345;-1739;-172;-74;-37
260567;1;3;0;410;3877;349;-1766;-164;-75;-33
260577;1;3;0;410;3890;349;-1748;-143;-93;-39
260587;1;3;0;410;3877;345;-1744;-130;-81;-71
260597;1;3;0;410;3890;337;-1731;-130;-84;-86
260607;1;3;0;410;3907;358;-1744;-137;-82;-91
260617;1;3;0;410;3896;325;-1753;-144;-78;-95
260627;1;3;0;410;3898;341;-1761;-169;-58;-85
260637;1;3;0;410;3895;334;-1754;-180;-47;-66
260647;1;3;0;410;3881;336;-1745;-171;-52;-56
260657;1;3;0;410;3882;346;-1749;-167;-65;-51
260667;1;3;0;410;3909;355;-1761;-163;-64;-64
260677;1;3;0;410;3902;352;-1748;-146;-54;-80
260687;1;3;0;410;3913;350;-1730;-135;-63;-96
260697;1;3;0;410;3920;340;-1743;-156;-55;-102
260707;1;3;0;410;3898;339;-1731;-170;-48;-124
260717;1;3;0;410;3877;331;-1741;-193;-28;-126
260727;1;3;0;410;3884;360;-1771;-193;-7;-106
260737;1;3;0;410;3879;334;-1754;-206;-3;-92
260747;1;3;0;410;3902;337;-1721;-207;-4;-121
260757;1;3;0;410;3905;367;-1753;-206;12;-150
260767;1;3;0;410;3910;352;-1732;-201;13;-156
260777;1;3;0;410;3923;349;-1726;-193;27;-158
260787;1;3;0;410;3904;341;-1754;-197;32;-152
260797;1;3;0;410;3875;343;-1723;-201;31;-110
260807;1;3;0;410;3884;366;-1745;-192;25;-47
260817;1;3;0;410;3892;350;-1732;-193;27;-24
260827;1;3;0;410;3906;342;-1730;-191;19;-39
260837;1;3;0;411;3930;341;-1727;-181;-3;-76
260847;1;3;0;411;3915;356;-1717;-168;-8;-101
260857;1;3;0;411;3922;366;-1744;-161;20;-111
260867;1;3;0;411;3905;363;-1734;-175;35;-102
260877;1;3;0;411;3895;364;-1736;-179;36;-83
260887;1;3;0;411;3895;361;-1702;-212;34;-63
260897;1;3;0;411;3896;359;-1714;-213;30;-49
260907;1;3;0;411;3910;347;-1722;-204;10;-51
260917;1;3;0;411;3939;330;-1718;-201;4;-73
260927;1;3;0;411;3955;343;-1722;-191;-5;-105
260937;1;3;0;411;3934;344;-1739;-198;11;-142
260947;1;3;0;411;3929;369;-1726;-198;15;-142
260957;1;3;0;411;3916;359;-1723;-188;7;-124
260967;1;3;0;411;3901;374;-1711;-184;7;-111
260977;1;3;0;411;3891;364;-1695;-187;9;-88
260987;1;3;0;411;3916;372;-1702;-173;5;-73
260997;1;3;0;411;3936;363;-1687;-173;-23;-85
261007;1;3;0;411;3944;367;-1725;-184;-35;-107
261017;1;3;0;411;3922;370;-1733;-189;-30;-113
261027;1;3;0;411;3923;366;-1718;-198;-36;-100
261037;1;3;0;411;3908;359;-1714;-203;-48;-82
261047;1;3;0;411;3896;358;-1714;-194;-48;-67
261057;1;3;0;411;3894;375;-1708;-196;-40;-50
261067;1;3;0;411;3900;353;-1695;-181;-60;-73
261077;1;3;0;411;3905;342;-1716;-158;-81;-106
261087;1;3;0;411;3923;366;-1721;-168;-69;-135
261097;1;3;0;411;3918;365;-1717;-183;-38;-132
261107;1;3;0;411;3911;368;-1701;-193;-9;-107
261117;1;3;0;411;3910;369;-1684;-192;-7;-96
261127;1;3;0;411;3904;359;-1684;-197;-10;-101
261137;1;3;0;411;3928;369;-1677;-173;-12;-107
261147;1;3;0;411;3937;390;-1711;-168;1;-107
261157;1;3;0;411;3935;369;-1708;-156;-14;-104
261167;1;3;0;411;3945;365;-1685;-160;-34;-102
261177;1;3;0;411;3946;381;-1695;-159;-42;-94
261187;1;3;0;411;3932;388;-1698;-154;-56;-80
261197;1;3;0;411;3921;375;-1697;-163;-67;-66
261207;1;3;0;411;3917;371;-1706;-165;-79;-49
261217;1;3;0;411;3919;355;-1711;-167;-96;-40
261227;1;3;0;411;3910;360;-1718;-164;-103;-45
261237;1;3;0;411;3915;361;-1712;-166;-95;-55
261247;1;3;0;411;3918;377;-1724;-159;-89;-64
261257;1;3;0;411;3927;380;-1720;-141;-86;-85
261267;1;3;0;411;3929;387;-1720;-137;-76;-106
261277;1;3;0;411;3923;369;-1696;-155;-61;-125
261287;1;3;0;411;3906;375;-1695;-147;-71;-128
261297;1;3;0;411;3903;370;-1685;-155;-65;-112
261307;1;3;0;411;3923;370;-1672;-149;-76;-90
261317;1;3;0;411;3935;368;-1675;-143;-81;-90
261327;1;3;0;411;3923;370;-1678;-139;-99;-106
261337;1;3;0;412;3951;377;-1678;-133;-122;-103
261347;1;3;0;412;3949;390;-1691;-140;-141;-112
261357;1;3;0;412;3948;381;-1669;-140;-145;-120
261367;1;3;0;412;3955;380;-1695;-151;-168;-123
261377;1;3;0;412;3945;377;-1713;-154;-151;-124
261387;1;3;0;412;3915;368;-1708;-141;-149;-106
261397;1;3;0;412;3907;375;-1706;-129;-173;-78
261407;1;3;0;412;3914;390;-1715;-130;-187;-54
261417;1;3;0;412;3907;382;-1702;-112;-195;-40
261427;1;3;0;412;3929;380;-1711;-96;-193;-26
261437;1;3;0;412;3926;366;-1699;-95;-204;-34
261447;1;3;0;412;3927;369;-1695;-87;-218;-44
261457;1;3;0;412;3932;367;-1719;-77;-219;-49
261467;1;3;0;412;3918;379;-1713;-76;-218;-68
261477;1;3;0;412;3901;374;-1722;-87;-216;-76
261487;1;3;0;412;3906;373;-1729;-98;-217;-62
261497;1;3;0;412;3893;357;-1731;-114;-205;-46
261507;1;3;0;412;3907;368;-1716;-114;-202;-33
261517;1;3;0;412;3896;379;-1710;-96;-211;-40
261527;1;3;0;412;3916;378;-1709;-99;-187;-51
261537;1;3;0;412;3917;365;-1708;-85;-189;-48
261547;1;3;0;412;3924;361;-1718;-81;-209;-44
261557;1;3;0;412;3919;363;-1709;-89;-216;-49
261567;1;3;0;412;3919;370;-1699;-89;-239;-55
261577;1;3;0;412;3914;365;-1701;-89;-261;-63
261587;1;3;0;412;3898;363;-1707;-99;-246;-79
261597;1;3;0;412;3872;380;-1707;-107;-231;-78
261607;1;3;0;412;3877;385;-1719;-105;-188;-79
261617;1;3;0;412;3889;371;-1739;-109;-180;-49
261627;1;3;0;412;3920;366;-1740;-89;-198;-49
261637;1;3;0;412;3906;382;-1728;-81;-226;-53
261647;1;3;0;412;3899;387;-1740;-77;-221;-37
261657;1;3;0;412;3923;384;-1725;-78;-211;-16
261667;1;3;0;412;3925;349;-1714;-109;-231;-59
261677;1;3;0;412;3889;368;-1735;-125;-204;-112
261687;1;3;0;412;3887;374;-1753;-121;-173;-62
261697;1;3;0;412;3883;345;-1723;-117;-170;-4
261707;1;3;0;412;3877;336;-1729;-94;-184;-2
261717;1;3;0;412;3880;371;-1746;-66;-179;-3
261727;1;3;0;412;3882;369;-1724;-59;-170;14
261737;1;3;0;412;3900;368;-1744;-64;-175;24
261747;1;3;0;412;3909;360;-1745;-72;-190;15
261757;1;3;0;412;3930;350;-1756;-97;-207;-7
261767;1;3;0;412;3910;363;-1759;-105;-191;-33
261777;1;3;0;412;3906;380;-1754;-110;-160;-48
261787;1;3;0;412;3880;362;-1747;-123;-145;-57
261797;1;3;0;412;3880;352;-1728;-130;-122;-66
261807;1;3;0;412;3878;349;-1726;-134;-112;-57
261817;1;3;0;412;3889;355;-1726;-120;-116;-29
261827;1;3;0;412;3891;369;-1721;-80;-123;-3
261837;1;3;0;413;3909;369;-1720;-67;-133;15
261847;1;3;0;413;3911;343;-1726;-75;-138;19
261857;1;3;0;413;3917;322;-1737;-85;-133;9
261867;1;3;0;413;3896;328;-1741;-117;-137;-5
261877;1;3;0;413;3885;335;-1737;-152;-131;-39
261887;1;3;0;413;3890;337;-1749;-152;-126;-47
261897;1;3;0;413;3872;358;-1770;-133;-123;-59
261907;1;3;0;413;3883;368;-1761;-126;-135;-61
261917;1;3;0;413;3900;357;-1758;-124;-128;-57
261927;1;3;0;413;3890;347;-1738;-116;-105;-41
261937;1;3;0;413;3875;350;-1735;-113;-93;-29
261947;1;3;0;413;3877;352;-1744;-112;-101;-29
261957;1;3;0;413;3875;354;-1735;-122;-90;-30
261967;1;3;0;413;3878;356;-1740;-127;-94;-29
261977;1;3;0;413;3881;350;-1742;-135;-84;-37
261987;1;3;0;413;3899;351;-1735;-131;-86;-45
261997;1;3;0;413;3902;335;-1739;-148;-96;-68
262007;1;3;0;413;3901;340;-1750;-159;-99;-86
262017;1;3;0;413;3880;355;-1729;-158;-96;-74
262027;1;3;0;413;3877;357;-1744;-145;-90;-33
262037;1;3;0;413;3900;347;-1731;-150;-81;-25
262047;1;3;0;413;3917;331;-1735;-148;-83;-53
262057;1;3;0;413;3928;329;-1725;-143;-82;-75
262067;1;3;0;413;3898;342;-1739;-144;-71;-84
262077;1;3;0;413;3893;344;-1756;-159;-61;-80
262087;1;3;0;413;3907;350;-1760;-169;-70;-71
262097;1;3;0;413;3888;348;-1774;-168;-77;-68
262107;1;3;0;413;3886;351;-1729;-163;-78;-52
262117;1;3;0;413;3893;359;-1734;-161;-72;-48
262127;1;3;0;413;3899;333;-1734;-148;-81;-57
262137;1;3;0;413;3894;350;-1745;-135;-92;-69
262147;1;3;0;413;3923;338;-1729;-133;-94;-90
262157;1;3;0;413;3905;343;-1743;-154;-84;-102
262167;1;3;0;413;3912;342;-1747;-170;-69;-114
262177;1;3;0;413;3897;358;-1761;-176;-73;-96
262187;1;3;0;413;3884;344;-1743;-176;-68;-83
262197;1;3;0;413;3896;354;-1735;-171;-69;-78
262207;1;3;0;413;3895;356;-1724;-164;-66;-74
262217;1;3;0;413;3891;342;-1742;-162;-63;-68
262227;1;3;0;413;3891;353;-1729;-151;-57;-79
262237;1;3;0;413;3918;349;-1750;-142;-65;-79
262247;1;3;0;413;3905;346;-1767;-151;-73;-77
262257;1;3;0;413;3909;338;-1749;-152;-77;-78
262267;1;3;0;413;3907;327;-1734;-160;-73;-84
262277;1;3;0;413;3895;345;-1736;-145;-85;-83
262287;1;3;0;413;3887;356;-1728;-147;-86;-73
262297;1;3;0;413;3881;354;-1731;-146;-83;-73
262307;1;3;0;413;3891;365;-1731;-143;-69;-63
262317;1;3;0;413;3901;363;-1745;-153;-58;-75
262327;1;3;0;413;3900;347;-1756;-157;-52;-87
262337;1;3;0;414;3906;338;-1755;-157;-62;-88
262347;1;3;0;414;3917;325;-1746;-163;-69;-86
262357;1;3;0;414;3900;328;-1723;-177;-79;-96
262367;1;3;0;414;3900;354;-1731;-168;-91;-105
262377;1;3;0;414;3898;358;-1737;-161;-77;-101
262387;1;3;0;414;3892;360;-1728;-168;-66;-94
262397;1;3;0;414;3899;371;-1722;-168;-54;-91
262407;1;3;0;414;3903;374;-1732;-158;-52;-97
262417;1;3;0;414;3918;361;-1746;-158;-55;-98
262427;1;3;0;414;3919;350;-1731;-165;-66;-89
262437;1;3;0;414;3917;341;-1731;-156;-92;-83
262447;1;3;0;414;3902;355;-1727;-155;-119;-84
262457;1;3;0;414;3899;359;-1719;-144;-130;-70
262467;1;3;0;414;3888;353;-1720;-131;-136;-61
262477;1;3;0;414;3911;359;-1737;-141;-127;-70
262487;1;3;0;414;3922;345;-1749;-148;-113;-91
262497;1;3;0;414;3928;356;-1735;-164;-107;-131
262507;1;3;0;414;3889;373;-1739;-166;-97;-143
262517;1;3;0;414;3909;348;-1744;-176;-73;-130
262527;1;3;0;414;3905;342;-1743;-182;-78;-141
262537;1;3;0;414;3878;375;-1744;-187;-51;-119
262547;1;3;0;414;3880;356;-1751;-162;-51;-54
262557;1;3;0;414;3901;342;-1737;-152;-67;-37
262567;1;3;0;414;3913;358;-1747;-142;-70;-41
262577;1;3;0;414;3903;378;-1720;-137;-65;-44
262587;1;3;0;414;3900;369;-1732;-144;-45;-43
262597;1;3;0;414;3910;346;-1732;-159;-34;-50
262607;1;3;0;414;3896;345;-1740;-167;-51;-60
262617;1;3;0;414;3907;355;-1744;-179;-65;-62
262627;1;3;0;414;3899;373;-1731;-176;-52;-71
262637;1;3;0;414;3876;368;-1711;-175;-34;-76
262647;1;3;0;414;3883;333;-1701;-182;-27;-82
262657;1;3;0;414;3888;351;-1700;-173;-36;-100
262667;1;3;0;414;3884;359;-1731;-169;-36;-104
262677;1;3;0;414;3914;364;-1737;-177;-32;-99
262687;1;3;0;414;3932;354;-1744;-166;-28;-81
262697;1;3;0;414;3923;354;-1721;-173;-33;-82
262707;1;3;0;414;3930;354;-1720;-163;-45;-59
262717;1;3;0;414;3911;350;-1694;-159;-60;-43
262727;1;3;0;414;3899;341;-1716;-156;-67;-41
262737;1;3;0;414;3921;369;-1714;-150;-68;-50
262747;1;3;0;414;3916;384;-1712;-152;-56;-63
262757;1;3;0;414;3903;369;-1721;-146;-42;-69
262767;1;3;0;414;3905;358;-1736;-146;-43;-64
262777;1;3;0;414;3903;362;-1736;-145;-54;-50
262787;1;3;0;414;3906;355;-1744;-138;-61;-46
262797;1;3;0;414;3900;361;-1729;-146;-70;-45
262807;1;3;0;414;3900;349;-1741;-147;-71;-49
262817;1;3;0;414;3898;358;-1732;-167;-73;-74
262827;1;3;0;414;3896;368;-1748;-172;-64;-101
