timestamp;subject_id;activity;label;seq;ax;ay;az;gx;gy;gz
172079;1;5;0;305;300;-692;-4047;-99;28;-4
172089;1;5;0;305;318;-674;-4021;-117;8;-18
172099;1;5;0;305;330;-670;-4037;-127;-31;-9
172109;1;5;0;305;352;-663;-4054;-133;-45;-8
172119;1;5;0;305;373;-670;-4065;-143;-56;-9
172129;1;5;0;305;370;-670;-4074;-150;-68;-25
172139;1;5;0;305;342;-686;-4070;-152;-79;-50
172149;1;5;0;305;334;-670;-4077;-167;-90;-67
172159;1;5;0;305;335;-669;-4093;-170;-89;-83
172169;1;5;0;305;328;-668;-4087;-157;-85;-71
172179;1;5;0;305;328;-664;-4114;-163;-79;-69
172189;1;5;0;305;336;-665;-4101;-167;-76;-63
172199;1;5;0;305;355;-649;-4071;-161;-72;-62
172209;1;5;0;305;368;-618;-4051;-159;-65;-65
172219;1;5;0;305;377;-621;-4051;-146;-72;-54
172229;1;5;0;305;389;-655;-4122;-139;-62;-52
172239;1;5;0;305;391;-655;-4103;-147;-69;-66
172249;1;5;0;305;376;-665;-4065;-155;-68;-78
172259;1;5;0;305;349;-667;-4044;-160;-71;-80
172269;1;5;0;305;304;-670;-4037;-156;-105;-84
172279;1;5;0;305;293;-683;-4087;-149;-109;-99
172289;1;5;0;305;316;-685;-4087;-172;-78;-102
172299;1;5;0;305;285;-684;-4096;-194;-38;-113
172309;1;5;0;305;287;-695;-4078;-200;-10;-142
172319;1;5;0;305;280;-663;-4101;-202;8;-173
172329;1;5;0;305;304;-649;-4089;-187;4;-183
172339;1;5;0;305;342;-627;-4086;-176;4;-185
172349;1;5;0;305;370;-627;-4081;-151;21;-164
172359;1;5;0;305;365;-645;-4108;-151;36;-132
172369;1;5;0;305;358;-663;-4087;-163;58;-114
172379;1;5;0;305;351;-668;-4102;-161;59;-122
172389;1;5;0;305;356;-659;-4072;-155;45;-143
172399;1;5;0;305;363;-660;-4063;-148;44;-163
172409;1;5;0;305;340;-647;-4035;-154;50;-178
172419;1;5;0;305;348;-667;-4058;-157;28;-199
172429;1;5;0;305;373;-664;-4086;-172;32;-207
172439;1;5;0;305;384;-641;-4100;-173;37;-203
172449;1;5;0;305;383;-649;-4089;-172;44;-187
172459;1;5;0;305;367;-647;-4098;-169;38;-178
172469;1;5;0;305;359;-664;-4102;-154;15;-190
172479;1;5;0;305;355;-659;-4115;-149;-26;-187
172489;1;5;0;305;388;-668;-4112;-143;-46;-206
172499;1;5;0;305;398;-646;-4086;-134;-48;-203
172509;1;5;0;305;399;-624;-4058;-133;-65;-172
172519;1;5;0;305;373;-629;-4049;-134;-67;-145
172529;1;5;0;305;368;-659;-4078;-126;-63;-145
172539;1;5;0;305;370;-674;-4093;-118;-56;-157
172549;1;5;0;305;360;-677;-4082;-116;-87;-170
172559;1;5;0;305;376;-669;-4078;-132;-76;-196
172569;1;5;0;305;389;-665;-4067;-141;-74;-203
172579;1;5;0;306;383;-666;-4096;-166;-66;-198
172589;1;5;0;306;385;-661;-4124;-181;-41;-179
172599;1;5;0;306;378;-671;-4132;-177;-34;-178
172609;1;5;0;306;385;-655;-4122;-174;-59;-183
172619;1;5;0;306;387;-640;-4109;-166;-60;-198
172629;1;5;0;306;379;-648;-4100;-164;-57;-202
172639;1;5;0;306;371;-677;-4097;-153;-60;-193
172649;1;5;0;306;392;-662;-4082;-168;-55;-202
172659;1;5;0;306;384;-650;-4062;-187;-27;-185
172669;1;5;0;306;365;-634;-4064;-196;-18;-183
172679;1;5;0;306;374;-644;-4106;-190;-33;-195
172689;1;5;0;306;382;-663;-4093;-184;-31;-207
172699;1;5;0;306;374;-638;-4063;-170;-14;-212
172709;1;5;0;306;365;-624;-4081;-166;-40;-193
172719;1;5;0;306;391;-663;-4110;-182;-80;-157
172729;1;5;0;306;419;-678;-4106;-177;-20;-168
172739;1;5;0;306;375;-662;-4138;-195;33;-179
172749;1;5;0;306;371;-677;-4122;-189;28;-206
172759;1;5;0;306;377;-669;-4090;-180;37;-238
172769;1;5;0;306;372;-647;-4041;-173;0;-267
172779;1;5;0;306;376;-630;-4037;-154;-37;-269
172789;1;5;0;306;412;-612;-4058;-173;-80;-244
172799;1;5;0;306;447;-627;-4102;-189;-70;-205
172809;1;5;0;306;441;-619;-4101;-183;-40;-164
172819;1;5;0;306;432;-633;-4123;-188;6;-134
172829;1;5;0;306;423;-619;-4109;-178;7;-115
172839;1;5;0;306;405;-629;-4069;-155;-13;-99
172849;1;5;0;306;457;-624;-4091;-160;-24;-63
172859;1;5;0;306;422;-647;-4110;-165;25;-79
172869;1;5;0;306;420;-647;-4097;-160;22;-98
172879;1;5;0;306;414;-645;-4096;-155;5;-104
172889;1;5;0;306;422;-651;-4114;-150;-36;-92
172899;1;5;0;306;441;-646;-4089;-157;-62;-70
172909;1;5;0;306;466;-629;-4070;-151;-63;-54
172919;1;5;0;306;433;-636;-4081;-166;-84;-2
172929;1;5;0;306;402;-649;-4097;-159;-96;-5
172939;1;5;0;306;392;-646;-4092;-166;-105;-9
172949;1;5;0;306;400;-649;-4092;-175;-125;-14
172959;1;5;0;306;420;-662;-4105;-167;-103;-9
172969;1;5;0;306;415;-631;-4094;-177;-96;-14
172979;1;5;0;306;404;-622;-4085;-163;-99;6
172989;1;5;0;306;428;-617;-4078;-153;-118;41
172999;1;5;0;306;430;-624;-4055;-151;-111;68
173009;1;5;0;306;423;-641;-4096;-157;-125;85
173019;1;5;0;306;421;-632;-4129;-151;-138;105
173029;1;5;0;306;394;-642;-4142;-138;-146;101
173039;1;5;0;306;396;-668;-4129;-138;-150;90
173049;1;5;0;306;424;-666;-4098;-133;-117;68
173059;1;5;0;306;391;-643;-4053;-145;-93;65
173069;1;5;0;306;396;-633;-4069;-138;-116;78
173079;1;5;0;307;375;-636;-4073;-141;-141;91
173089;1;5;0;307;391;-658;-4113;-149;-147;89
173099;1;5;0;307;387;-642;-4119;-136;-143;87
173109;1;5;0;307;384;-619;-4109;-135;-132;93
173119;1;5;0;307;365;-635;-4082;-129;-136;111
173129;1;5;0;307;379;-646;-4087;-125;-115;105
173139;1;5;0;307;393;-666;-4089;-127;-106;86
173149;1;5;0;307;390;-655;-4091;-113;-83;73
173159;1;5;0;307;410;-634;-4091;-114;-76;70
173169;1;5;0;307;402;-631;-4083;-111;-69;80
173179;1;5;0;307;395;-635;-4094;-120;-58;101
173189;1;5;0;307;380;-655;-4084;-117;-61;106
173199;1;5;0;307;362;-659;-4070;-117;-82;114
173209;1;5;0;307;393;-640;-4100;-133;-70;112
173219;1;5;0;307;386;-649;-4098;-123;-61;120
173229;1;5;0;307;397;-639;-4104;-120;-35;125
173239;1;5;0;307;392;-634;-4105;-116;-30;124
173249;1;5;0;307;377;-649;-4104;-97;-44;111
173259;1;5;0;307;382;-646;-4121;-78;-45;100
173269;1;5;0;307;413;-637;-4104;-62;-29;114
173279;1;5;0;307;415;-622;-4096;-67;-24;133
173289;1;5;0;307;430;-637;-4078;-83;-19;141
173299;1;5;0;307;452;-624;-4064;-81;-31;165
173309;1;5;0;307;463;-630;-4060;-74;-49;190
173319;1;5;0;307;430;-643;-4074;-62;-56;190
173329;1;5;0;307;426;-670;-4080;-70;-81;181
173339;1;5;0;307;391;-703;-4079;-70;-85;139
173349;1;5;0;307;390;-687;-4065;-76;-91;104
173359;1;5;0;307;395;-663;-4058;-93;-92;98
173369;1;5;0;307;380;-667;-4067;-108;-79;95
173379;1;5;0;307;377;-662;-4073;-119;-57;95
173389;1;5;0;307;374;-680;-4093;-134;-54;73
173399;1;5;0;307;390;-686;-4098;-113;-66;36
173409;1;5;0;307;401;-649;-4070;-97;-100;21
173419;1;5;0;307;442;-630;-4091;-83;-95;41
173429;1;5;0;307;428;-653;-4087;-87;-89;99
173439;1;5;0;307;394;-676;-4076;-105;-60;107
173449;1;5;0;307;337;-693;-4097;-99;-62;101
173459;1;5;0;307;346;-694;-4074;-81;-94;91
173469;1;5;0;307;365;-679;-4053;-89;-105;68
173479;1;5;0;307;401;-685;-4076;-100;-129;36
173489;1;5;0;307;428;-678;-4056;-100;-150;14
173499;1;5;0;307;428;-644;-4066;-85;-132;6
173509;1;5;0;307;433;-655;-4072;-93;-147;15
173519;1;5;0;307;427;-661;-4084;-93;-152;40
173529;1;5;0;307;393;-670;-4095;-83;-161;61
173539;1;5;0;307;384;-668;-4102;-83;-181;79
173549;1;5;0;307;367;-676;-4091;-95;-174;79
173559;1;5;0;307;383;-697;-4072;-93;-158;62
173569;1;5;0;307;362;-682;-4046;-84;-165;52
173579;1;5;0;308;395;-661;-4087;-113;-207;42
173589;1;5;0;308;432;-683;-4088;-111;-212;51
173599;1;5;0;308;411;-672;-4088;-126;-143;52
173609;1;5;0;308;386;-703;-4100;-128;-147;42
173619;1;5;0;308;371;-698;-4063;-112;-169;29
173629;1;5;0;308;378;-663;-4036;-100;-204;21
173639;1;5;0;308;398;-631;-4064;-102;-214;33
173649;1;5;0;308;418;-638;-4122;-100;-205;68
173659;1;5;0;308;434;-660;-4130;-98;-182;101
173669;1;5;0;308;390;-696;-4076;-95;-165;114
173679;1;5;0;308;348;-682;-4049;-78;-184;100
173689;1;5;0;308;338;-694;-4075;-76;-211;91
173699;1;5;0;308;338;-700;-4077;-87;-193;94
173709;1;5;0;308;350;-700;-4056;-102;-173;86
173719;1;5;0;308;370;-679;-4085;-122;-108;70
173729;1;5;0;308;386;-653;-4087;-118;-45;43
173739;1;5;0;308;372;-650;-4082;-122;3;28
173749;1;5;0;308;376;-678;-4072;-115;12;43
173759;1;5;0;308;360;-712;-4060;-125;2;61
173769;1;5;0;308;342;-703;-4045;-125;-18;66
173779;1;5;0;308;359;-683;-4046;-145;-31;55
173789;1;5;0;308;385;-655;-4066;-141;-38;35
173799;1;5;0;308;427;-631;-4080;-137;0;38
173809;1;5;0;308;443;-616;-4098;-141;56;64
173819;1;5;0;308;454;-639;-4143;-177;115;118
173829;1;5;0;308;405;-731;-4142;-207;147;192
173839;1;5;0;308;346;-803;-4107;-249;161;155
173849;1;5;0;308;296;-796;-4062;-264;118;70
173859;1;5;0;308;316;-756;-4074;-261;60;-75
173869;1;5;0;308;338;-740;-4121;-228;-8;-170
173879;1;5;0;308;346;-751;-4147;-176;-62;-236
173889;1;5;0;308;356;-741;-4131;-119;-175;-251
173899;1;5;0;308;381;-690;-4057;-88;-252;-257
173909;1;5;0;308;399;-639;-3989;-74;-272;-248
173919;1;5;0;308;413;-585;-4000;-89;-254;-175
173929;1;5;0;308;439;-613;-4070;-133;-175;-95
173939;1;5;0;308;414;-658;-4079;-152;-102;-62
173949;1;5;0;308;351;-685;-4071;-162;-38;-46
173959;1;5;0;308;345;-677;-4053;-165;-39;-41
173969;1;5;0;308;288;-708;-4089;-112;-131;98
173979;1;5;0;308;369;-595;-4028;-117;-125;-14
173989;1;5;0;308;491;-572;-4090;-152;-91;-10
173999;1;5;0;308;526;-612;-4124;-147;-23;86
174009;1;5;0;308;429;-658;-4095;-131;20;118
174019;1;5;0;308;344;-695;-4070;-103;-35;112
174029;1;5;0;308;341;-704;-4049;-91;-95;101
174039;1;5;0;308;369;-723;-4092;-109;-144;84
174049;1;5;0;308;419;-720;-4113;-112;-155;70
174059;1;5;0;308;442;-657;-4108;-110;-168;77
174069;1;5;0;308;437;-684;-4115;-116;-138;50
174079;1;5;0;309;412;-732;-4091;-78;-109;25
174089;1;5;0;309;330;-756;-4039;-80;-92;-4
174099;1;5;0;309;279;-789;-4014;-122;-149;-78
174109;1;5;0;309;295;-770;-4023;-167;-234;-137
174119;1;5;0;309;448;-778;-4132;-161;-239;-69
174129;1;5;0;309;365;-729;-4134;-142;-375;-132
174139;1;5;0;309;363;-676;-4074;-166;-310;-285
174149;1;5;0;309;427;-675;-4130;-192;-216;-313
174159;1;5;0;309;413;-665;-4116;-203;-151;-251
174169;1;5;0;309;390;-666;-4079;-217;-128;-218
174179;1;5;0;309;352;-653;-4081;-190;-161;-207
174189;1;5;0;309;388;-631;-4097;-177;-169;-203
174199;1;5;0;309;435;-652;-4115;-148;-151;-213
174209;1;5;0;309;391;-662;-4087;-131;-95;-202
174219;1;5;0;309;343;-679;-4040;-136;-56;-185
174229;1;5;0;309;356;-686;-4062;-165;-21;-181
174239;1;5;0;309;383;-686;-4051;-195;-20;-166
174249;1;5;0;309;414;-680;-4085;-198;6;-155
174259;1;5;0;309;375;-657;-4036;-195;39;-121
174269;1;5;0;309;328;-691;-3998;-212;40;-124
174279;1;5;0;309;348;-693;-4026;-192;-38;-139
174289;1;5;0;309;405;-676;-4073;-194;-83;-184
174299;1;5;0;309;458;-672;-4116;-171;-107;-210
174309;1;5;0;309;453;-628;-4106;-143;-80;-196
174319;1;5;0;309;420;-623;-4139;-155;-58;-132
174329;1;5;0;309;403;-702;-4140;-167;-76;-89
174339;1;5;0;309;392;-743;-4119;-167;-27;-107
174349;1;5;0;309;269;-748;-4063;-189;-30;-146
174359;1;5;0;309;269;-789;-4040;-202;-53;-234
174369;1;5;0;309;307;-755;-4042;-199;-98;-367
174379;1;5;0;309;348;-663;-4002;-201;-130;-399
174389;1;5;0;309;408;-581;-4031;-202;-125;-358
174399;1;5;0;309;476;-571;-4068;-195;-106;-251
174409;1;5;0;309;467;-621;-4083;-167;-88;-159
174419;1;5;0;309;433;-669;-4074;-151;-82;-115
174429;1;5;0;309;380;-703;-4036;-143;-127;-132
174439;1;5;0;309;360;-700;-4041;-148;-183;-193
174449;1;5;0;309;402;-674;-4061;-162;-193;-227
174459;1;5;0;309;431;-663;-4109;-175;-160;-219
174469;1;5;0;309;406;-661;-4120;-190;-94;-183
174479;1;5;0;309;389;-664;-4094;-189;-76;-162
174489;1;5;0;309;375;-658;-4085;-168;-98;-148
174499;1;5;0;309;388;-630;-4078;-143;-130;-132
174509;1;5;0;309;410;-622;-4050;-129;-150;-107
174519;1;5;0;309;398;-630;-4077;-103;-165;-76
174529;1;5;0;309;392;-655;-4099;-99;-176;-56
174539;1;5;0;309;400;-684;-4121;-100;-168;-56
174549;1;5;0;309;380;-700;-4143;-99;-129;-44
174559;1;5;0;309;364;-688;-4127;-96;-114;-35
174569;1;5;0;309;359;-685;-4113;-116;-109;-33
174579;1;5;0;310;371;-679;-4103;-122;-114;-44
174589;1;5;0;310;397;-665;-4106;-111;-128;-43
174599;1;5;0;310;419;-666;-4122;-97;-128;-50
174609;1;5;0;310;410;-658;-4097;-95;-109;-28
174619;1;5;0;310;396;-675;-4073;-112;-108;-17
174629;1;5;0;310;375;-699;-4077;-112;-101;-11
174639;1;5;0;310;351;-716;-4086;-116;-123;-33
174649;1;5;0;310;372;-724;-4115;-136;-127;-66
174659;1;5;0;310;348;-694;-4093;-137;-107;-81
174669;1;5;0;310;342;-674;-4076;-146;-92;-93
174679;1;5;0;310;371;-666;-4073;-145;-132;-70
174689;1;5;0;310;389;-674;-4057;-144;-125;-42
174699;1;5;0;310;395;-691;-4061;-139;-127;-43
174709;1;5;0;310;368;-708;-4043;-153;-162;-80
174719;1;5;0;310;341;-717;-4046;-143;-174;-128
174729;1;5;0;310;377;-684;-4106;-165;-158;-143
174739;1;5;0;310;377;-668;-4128;-169;-128;-134
174749;1;5;0;310;384;-673;-4120;-174;-77;-123
174759;1;5;0;310;370;-673;-4126;-171;-34;-110
174769;1;5;0;310;364;-683;-4095;-170;-24;-130
174779;1;5;0;310;330;-699;-4070;-164;-39;-143
174789;1;5;0;310;348;-692;-4059;-167;-70;-170
174799;1;5;0;310;385;-665;-4090;-170;-94;-182
174809;1;5;0;310;408;-665;-4119;-161;-73;-160
174819;1;5;0;310;403;-660;-4109;-154;-21;-143
174829;1;5;0;310;395;-663;-4088;-155;18;-128
174839;1;5;0;310;365;-657;-4082;-144;27;-107
174849;1;5;0;310;368;-665;-4050;-140;19;-101
174859;1;5;0;310;354;-673;-4071;-142;-20;-96
174869;1;5;0;310;400;-678;-4076;-150;-22;-105
174879;1;5;0;310;420;-676;-4098;-152;-34;-114
174889;1;5;0;310;426;-671;-4080;-144;-33;-113
174899;1;5;0;310;408;-669;-4099;-147;-26;-98
174909;1;5;0;310;400;-677;-4100;-150;-14;-100
174919;1;5;0;310;350;-663;-4088;-134;-29;-98
174929;1;5;0;310;354;-682;-4092;-140;-49;-101
174939;1;5;0;310;349;-681;-4068;-132;-64;-116
174949;1;5;0;310;389;-680;-4087;-133;-67;-120
174959;1;5;0;310;419;-662;-4061;-133;-60;-113
174969;1;5;0;310;411;-668;-4071;-134;-62;-92
174979;1;5;0;310;412;-680;-4091;-152;-62;-84
174989;1;5;0;310;403;-689;-4115;-150;-57;-93
174999;1;5;0;310;381;-693;-4100;-152;-36;-100
175009;1;5;0;310;381;-683;-4089;-145;-28;-105
175019;1;5;0;310;351;-681;-4059;-147;-41;-106
175029;1;5;0;310;353;-679;-4069;-142;-59;-124
175039;1;5;0;310;369;-683;-4053;-135;-80;-144
175049;1;5;0;310;390;-691;-4068;-148;-91;-153
175059;1;5;0;310;425;-670;-4080;-151;-74;-153
175069;1;5;0;310;426;-658;-4098;-158;-66;-137
175079;1;5;0;311;414;-671;-4071;-172;-78;-122
175089;1;5;0;311;409;-672;-4100;-170;-100;-122
175099;1;5;0;311;401;-675;-4087;-159;-85;-129
175109;1;5;0;311;378;-687;-4077;-130;-59;-141
175119;1;5;0;311;348;-656;-4094;-132;-71;-127
175129;1;5;0;311;394;-682;-4092;-135;-115;-115
175139;1;5;0;311;397;-701;-4100;-139;-98;-130
175149;1;5;0;311;398;-699;-4093;-144;-62;-158
175159;1;5;0;311;393;-706;-4087;-153;-47;-192
175169;1;5;0;311;389;-720;-4056;-158;-67;-230
175179;1;5;0;311;405;-671;-4030;-143;-84;-232
175189;1;5;0;311;364;-668;-4033;-140;-97;-226
175199;1;5;0;311;373;-670;-4061;-148;-129;-204
175209;1;5;0;311;415;-670;-4114;-164;-146;-192
175219;1;5;0;311;430;-663;-4120;-150;-143;-173
175229;1;5;0;311;409;-667;-4115;-132;-102;-148
175239;1;5;0;311;386;-673;-4085;-131;-52;-160
175249;1;5;0;311;370;-680;-4080;-142;-40;-188
175259;1;5;0;311;382;-670;-4096;-148;-39;-197
175269;1;5;0;311;390;-677;-4080;-142;-37;-196
175279;1;5;0;311;392;-672;-4085;-139;-31;-185
175289;1;5;0;311;415;-687;-4107;-148;-40;-190
175299;1;5;0;311;444;-666;-4107;-138;-64;-176
175309;1;5;0;311;436;-672;-4107;-144;-72;-170
175319;1;5;0;311;431;-666;-4096;-153;-57;-152
175329;1;5;0;311;408;-675;-4073;-150;-42;-132
175339;1;5;0;311;406;-669;-4079;-145;-49;-139
175349;1;5;0;311;406;-656;-4079;-147;-72;-128
175359;1;5;0;311;428;-647;-4084;-157;-88;-114
175369;1;5;0;311;451;-650;-4103;-147;-108;-83
175379;1;5;0;311;453;-665;-4099;-142;-114;-68
175389;1;5;0;311;433;-660;-4099;-151;-121;-44
175399;1;5;0;311;433;-682;-4072;-149;-107;-48
175409;1;5;0;311;424;-674;-4087;-141;-115;-46
175419;1;5;0;311;401;-665;-4075;-148;-118;-40
175429;1;5;0;311;399;-675;-4102;-149;-120;-48
175439;1;5;0;311;406;-661;-4113;-141;-120;-33
175449;1;5;0;311;421;-688;-4138;-145;-115;-26
175459;1;5;0;311;431;-682;-4092;-127;-101;-26
175469;1;5;0;311;396;-662;-4055;-122;-93;-13
175479;1;5;0;311;359;-692;-4070;-135;-118;-6
175489;1;5;0;311;421;-699;-4046;-155;-140;-24
175499;1;5;0;311;397;-701;-4092;-154;-138;-37
175509;1;5;0;311;398;-680;-4075;-140;-130;-35
175519;1;5;0;311;389;-663;-4085;-141;-129;-32
175529;1;5;0;311;395;-671;-4087;-134;-133;-27
175539;1;5;0;311;402;-668;-4124;-130;-140;-21
175549;1;5;0;311;399;-674;-4104;-137;-118;-7
175559;1;5;0;311;403;-696;-4107;-133;-101;0
175569;1;5;0;311;403;-680;-4093;-125;-104;11
175579;1;5;0;312;416;-684;-4105;-129;-92;-5
175589;1;5;0;312;384;-690;-4079;-132;-74;-11
175599;1;5;0;312;417;-688;-4049;-141;-60;-6
175609;1;5;0;312;411;-678;-4081;-146;-65;1
175619;1;5;0;312;414;-675;-4083;-145;-77;20
175629;1;5;0;312;418;-655;-4106;-142;-73;35
175639;1;5;0;312;414;-669;-4109;-150;-87;62
175649;1;5;0;312;435;-679;-4113;-152;-70;71
175659;1;5;0;312;419;-696;-4116;-129;-54;66
175669;1;5;0;312;388;-690;-4056;-133;-60;64
175679;1;5;0;312;384;-696;-4045;-134;-98;70
175689;1;5;0;312;369;-682;-4048;-154;-125;64
175699;1;5;0;312;377;-695;-4084;-153;-154;62
175709;1;5;0;312;413;-689;-4112;-149;-132;33
175719;1;5;0;312;417;-676;-4107;-136;-113;34
175729;1;5;0;312;403;-667;-4090;-135;-114;56
175739;1;5;0;312;385;-673;-4055;-128;-120;68
175749;1;5;0;312;397;-686;-4053;-128;-140;62
175759;1;5;0;312;386;-693;-4070;-117;-153;52
175769;1;5;0;312;406;-676;-4089;-126;-153;41
175779;1;5;0;312;407;-679;-4094;-118;-141;55
175789;1;5;0;312;382;-675;-4094;-114;-123;62
175799;1;5;0;312;380;-680;-4104;-120;-109;72
175809;1;5;0;312;376;-690;-4108;-101;-116;67
175819;1;5;0;312;391;-697;-4100;-119;-125;53
175829;1;5;0;312;420;-682;-4082;-116;-131;46
175839;1;5;0;312;425;-657;-4069;-118;-137;55
175849;1;5;0;312;420;-667;-4087;-104;-147;71
175859;1;5;0;312;408;-680;-4085;-104;-152;84
175869;1;5;0;312;380;-687;-4084;-96;-155;89
175879;1;5;0;312;381;-684;-4097;-94;-160;95
175889;1;5;0;312;366;-691;-4052;-82;-162;94
175899;1;5;0;312;360;-700;-4033;-80;-153;84
175909;1;5;0;312;327;-670;-4039;-80;-161;86
175919;1;5;0;312;350;-692;-4054;-107;-193;103
175929;1;5;0;312;396;-718;-4108;-129;-170;99
175939;1;5;0;312;382;-700;-4104;-140;-123;68
175949;1;5;0;312;368;-719;-4100;-146;-107;41
175959;1;5;0;312;374;-700;-4071;-141;-109;14
175969;1;5;0;312;395;-688;-4051;-122;-133;-5
175979;1;5;0;312;374;-665;-4054;-103;-165;6
175989;1;5;0;312;395;-644;-4095;-100;-180;47
175999;1;5;0;312;412;-656;-4140;-100;-174;102
176009;1;5;0;312;402;-686;-4150;-96;-147;127
176019;1;5;0;312;382;-693;-4144;-75;-126;125
176029;1;5;0;312;367;-666;-4109;-54;-100;126
176039;1;5;0;312;370;-692;-4088;-61;-55;153
176049;1;5;0;312;364;-727;-4084;-92;1;161
176059;1;5;0;312;357;-727;-4014;-112;43;157
176069;1;5;0;312;304;-729;-4005;-142;68;142
176079;1;5;0;313;278;-745;-4022;-146;43;90
176089;1;5;0;313;296;-755;-4047;-138;-21;21
176099;1;5;0;313;370;-731;-4077;-154;-57;-43
176109;1;5;0;313;432;-697;-4084;-151;-49;-64
176119;1;5;0;313;427;-696;-4078;-149;-28;-59
176129;1;5;0;313;411;-702;-4087;-158;-7;-48
176139;1;5;0;313;368;-718;-4097;-166;-20;-65
176149;1;5;0;313;349;-719;-4097;-165;-31;-84
176159;1;5;0;313;364;-715;-4067;-163;-46;-105
176169;1;5;0;313;383;-690;-4045;-158;-49;-121
176179;1;5;0;313;379;-706;-4060;-169;-46;-132
176189;1;5;0;313;406;-676;-4059;-174;-25;-140
176199;1;5;0;313;415;-672;-4059;-163;-11;-134
176209;1;5;0;313;413;-658;-4077;-160;8;-104
176219;1;5;0;313;408;-681;-4106;-166;50;-80
176229;1;5;0;313;367;-713;-4116;-172;63;-75
176239;1;5;0;313;371;-717;-4117;-166;66;-85
176249;1;5;0;313;373;-687;-4082;-156;45;-92
176259;1;5;0;313;373;-688;-4081;-154;15;-103
176269;1;5;0;313;433;-678;-4075;-158;17;-101
176279;1;5;0;313;434;-664;-4045;-154;39;-79
176289;1;5;0;313;397;-690;-4052;-147;16;-48
176299;1;5;0;313;388;-702;-4051;-149;-19;-56
176309;1;5;0;313;403;-705;-4044;-144;-53;-72
176319;1;5;0;313;418;-701;-4056;-147;-66;-78
176329;1;5;0;313;426;-668;-4070;-142;-65;-69
176339;1;5;0;313;421;-671;-4083;-154;-34;-45
176349;1;5;0;313;400;-690;-4076;-145;-14;-36
176359;1;5;0;313;381;-690;-4076;-158;-3;-22
176369;1;5;0;313;379;-716;-4082;-160;-14;-26
176379;1;5;0;313;402;-705;-4093;-170;-26;-39
176389;1;5;0;313;408;-719;-4106;-163;-43;-66
176399;1;5;0;313;415;-721;-4106;-168;-46;-99
176409;1;5;0;313;439;-707;-4091;-170;-39;-118
176419;1;5;0;313;452;-695;-4076;-172;-44;-120
176429;1;5;0;313;421;-693;-4065;-169;-46;-106
176439;1;5;0;313;394;-701;-4076;-166;-54;-97
176449;1;5;0;313;388;-697;-4077;-170;-71;-90
176459;1;5;0;313;396;-695;-4057;-160;-89;-100
176469;1;5;0;313;413;-696;-4067;-180;-74;-105
176479;1;5;0;313;408;-695;-4085;-178;-53;-106
176489;1;5;0;313;408;-694;-4068;-185;-62;-111
176499;1;5;0;313;416;-703;-4077;-178;-65;-122
176509;1;5;0;313;412;-695;-4064;-177;-82;-135
176519;1;5;0;313;416;-698;-4062;-173;-95;-144
176529;1;5;0;313;432;-678;-4088;-183;-90;-133
176539;1;5;0;313;428;-676;-4092;-175;-87;-122
176549;1;5;0;313;418;-686;-4089;-175;-71;-105
176559;1;5;0;313;407;-680;-4064;-170;-81;-95
176569;1;5;0;313;410;-676;-4072;-158;-93;-101
176579;1;5;0;314;422;-683;-4083;-162;-86;-92
176589;1;5;0;314;435;-666;-4088;-159;-75;-81
176599;1;5;0;314;433;-678;-4079;-149;-71;-69
176609;1;5;0;314;429;-687;-4069;-142;-64;-62
176619;1;5;0;314;396;-692;-4067;-149;-63;-51
176629;1;5;0;314;408;-699;-4068;-155;-67;-59
176639;1;5;0;314;413;-708;-4071;-147;-86;-94
176649;1;5;0;314;408;-689;-4068;-139;-73;-113
176659;1;5;0;314;404;-679;-4063;-135;-87;-108
176669;1;5;0;314;428;-676;-4090;-152;-123;-84
176679;1;5;0;314;469;-695;-4106;-166;-105;-72
176689;1;5;0;314;424;-701;-4094;-152;-59;-71
176699;1;5;0;314;382;-723;-4100;-170;-59;-92
176709;1;5;0;314;370;-745;-4069;-168;-76;-123
176719;1;5;0;314;374;-692;-4027;-158;-94;-156
176729;1;5;0;314;400;-657;-4056;-144;-112;-163
176739;1;5;0;314;415;-653;-4089;-135;-115;-141
176749;1;5;0;314;445;-661;-4127;-131;-95;-109
176759;1;5;0;314;467;-679;-4120;-124;-42;-84
176769;1;5;0;314;419;-703;-4079;-126;-12;-73
176779;1;5;0;314;392;-708;-4052;-118;-7;-89
176789;1;5;0;314;368;-718;-4055;-142;-10;-104
176799;1;5;0;314;388;-716;-4068;-160;-3;-131
176809;1;5;0;314;412;-697;-4109;-168;38;-153
176819;1;5;0;314;418;-690;-4122;-163;85;-150
176829;1;5;0;314;381;-682;-4110;-155;100;-150
176839;1;5;0;314;404;-688;-4100;-139;89;-160
176849;1;5;0;314;409;-682;-4104;-139;76;-165
176859;1;5;0;314;439;-678;-4108;-128;73;-158
176869;1;5;0;314;447;-690;-4095;-117;80;-144
176879;1;5;0;314;441;-690;-4093;-108;85;-147
176889;1;5;0;314;469;-674;-4054;-106;57;-158
176899;1;5;0;314;495;-652;-4066;-95;42;-151
176909;1;5;0;314;513;-660;-4073;-95;32;-140
176919;1;5;0;314;512;-670;-4062;-105;39;-104
176929;1;5;0;314;484;-676;-4038;-118;54;-54
176939;1;5;0;314;442;-695;-4015;-126;44;-17
176949;1;5;0;314;404;-726;-4011;-144;6;1
176959;1;5;0;314;414;-734;-4041;-163;-49;-24
176969;1;5;0;314;431;-727;-4076;-162;-96;-61
176979;1;5;0;314;472;-705;-4098;-174;-99;-84
176989;1;5;0;314;499;-693;-4140;-182;-96;-100
176999;1;5;0;314;507;-675;-4126;-164;-55;-93
177009;1;5;0;314;460;-655;-4067;-136;-38;-53
177019;1;5;0;314;421;-671;-4060;-130;-60;-21
177029;1;5;0;314;422;-691;-4032;-118;-73;-12
177039;1;5;0;314;433;-723;-4051;-138;-79;-20
177049;1;5;0;314;414;-713;-4052;-147;-96;-43
177059;1;5;0;314;443;-692;-4049;-156;-138;-88
177069;1;5;0;314;496;-667;-4105;-142;-155;-114
177079;1;5;0;315;548;-649;-4146;-135;-123;-117
177089;1;5;0;315;529;-648;-4141;-121;-59;-87
177099;1;5;0;315;460;-678;-4098;-111;-14;-37
177109;1;5;0;315;390;-695;-4036;-129;-8;-5
177119;1;5;0;315;371;-723;-4016;-140;-40;-22
177129;1;5;0;315;399;-722;-4061;-148;-98;-69
177139;1;5;0;315;449;-706;-4082;-151;-129;-115
177149;1;5;0;315;495;-654;-4131;-143;-102;-121
177159;1;5;0;315;499;-652;-4131;-114;-60;-82
177169;1;5;0;315;492;-664;-4117;-98;-29;-35
177179;1;5;0;315;448;-692;-4069;-92;-13;0
177189;1;5;0;315;404;-705;-4059;-95;-3;12
177199;1;5;0;315;405;-721;-4056;-104;-14;8
177209;1;5;0;315;451;-698;-4055;-112;-32;-19
177219;1;5;0;315;499;-692;-4096;-122;-21;-30
177229;1;5;0;315;523;-678;-4122;-121;21;-29
177239;1;5;0;315;496;-675;-4116;-106;62;13
177249;1;5;0;315;446;-701;-4094;-109;81;37
177259;1;5;0;315;421;-713;-4059;-105;63;58
177269;1;5;0;315;418;-714;-4088;-113;33;59
177279;1;5;0;315;437;-724;-4115;-106;-9;21
177289;1;5;0;315;496;-713;-4143;-93;-25;-11
177299;1;5;0;315;516;-711;-4160;-91;-20;-50
177309;1;5;0;315;526;-712;-4112;-73;-3;-77
177319;1;5;0;315;514;-711;-4045;-66;11;-88
177329;1;5;0;315;438;-700;-3985;-93;6;-60
177339;1;5;0;315;415;-715;-3973;-115;-45;-37
177349;1;5;0;315;415;-731;-4013;-149;-73;-38
177359;1;5;0;315;452;-720;-4060;-161;-107;-47
177369;1;5;0;315;509;-701;-4069;-164;-115;-50
177379;1;5;0;315;537;-672;-4077;-162;-110;-32
177389;1;5;0;315;516;-669;-4076;-154;-94;-11
177399;1;5;0;315;482;-681;-4070;-157;-72;33
177409;1;5;0;315;442;-694;-4071;-168;-73;64
177419;1;5;0;315;415;-708;-4087;-164;-108;76
177429;1;5;0;315;443;-703;-4082;-155;-127;74
177439;1;5;0;315;450;-718;-4105;-137;-141;51
177449;1;5;0;315;469;-718;-4093;-115;-153;27
177459;1;5;0;315;499;-692;-4053;-101;-140;8
177469;1;5;0;315;480;-697;-4044;-101;-152;4
177479;1;5;0;315;515;-697;-4050;-107;-182;27
177489;1;5;0;315;516;-665;-4056;-115;-154;58
177499;1;5;0;315;434;-657;-4073;-94;-149;121
177509;1;5;0;315;418;-707;-4115;-110;-166;143
177519;1;5;0;315;465;-751;-4132;-108;-171;112
177529;1;5;0;315;436;-732;-4084;-84;-130;71
177539;1;5;0;315;426;-754;-4066;-97;-130;33
177549;1;5;0;315;444;-737;-4053;-97;-140;-8
177559;1;5;0;315;436;-691;-4010;-92;-129;-27
177569;1;5;0;315;441;-649;-4039;-66;-136;2
177579;1;5;0;316;445;-664;-4075;-76;-149;45
177589;1;5;0;316;462;-698;-4135;-72;-113;71
177599;1;5;0;316;470;-713;-4114;-62;-68;95
177609;1;5;0;316;447;-714;-4087;-53;-39;105
177619;1;5;0;316;432;-714;-4073;-64;-30;84
177629;1;5;0;316;446;-727;-4056;-64;-32;71
177639;1;5;0;316;445;-719;-4055;-71;-24;45
177649;1;5;0;316;458;-724;-4066;-83;-8;34
177659;1;5;0;316;469;-734;-4091;-82;-19;32
177669;1;5;0;316;473;-754;-4085;-109;-23;18
177679;1;5;0;316;493;-734;-4081;-114;-41;-3
177689;1;5;0;316;479;-738;-4070;-127;-65;-12
177699;1;5;0;316;470;-727;-4055;-133;-68;-15
177709;1;5;0;316;449;-742;-4064;-145;-80;-1
177719;1;5;0;316;436;-746;-4090;-160;-69;-5
177729;1;5;0;316;417;-750;-4120;-167;-67;-25
177739;1;5;0;316;443;-760;-4091;-170;-73;-58
177749;1;5;0;316;440;-732;-4073;-160;-94;-92
177759;1;5;0;316;481;-712;-4062;-162;-115;-118
177769;1;5;0;316;521;-694;-4043;-145;-126;-116
177779;1;5;0;316;511;-692;-4061;-132;-132;-91
177789;1;5;0;316;476;-681;-4045;-119;-147;-55
177799;1;5;0;316;462;-677;-4024;-115;-163;-17
177809;1;5;0;316;445;-707;-4008;-129;-172;6
177819;1;5;0;316;451;-734;-4003;-124;-185;12
177829;1;5;0;316;439;-740;-4044;-144;-198;7
177839;1;5;0;316;458;-730;-4054;-161;-179;-11
177849;1;5;0;316;450;-709;-4036;-158;-167;-19
177859;1;5;0;316;448;-696;-4068;-154;-169;-17
177869;1;5;0;316;471;-704;-4108;-149;-154;-6
177879;1;5;0;316;461;-698;-4127;-154;-122;33
177889;1;5;0;316;436;-751;-4116;-142;-123;36
177899;1;5;0;316;416;-733;-4052;-125;-158;-5
177909;1;5;0;316;452;-721;-4039;-120;-199;-38
177919;1;5;0;316;483;-709;-4084;-108;-222;-45
177929;1;5;0;316;487;-700;-4105;-105;-205;-26
177939;1;5;0;316;468;-706;-4110;-105;-153;6
177949;1;5;0;316;422;-721;-4104;-112;-111;33
177959;1;5;0;316;391;-734;-4049;-127;-78;41
177969;1;5;0;316;384;-744;-4050;-143;-84;28
177979;1;5;0;316;401;-744;-4056;-147;-102;10
177989;1;5;0;316;452;-723;-4074;-161;-91;7
177999;1;5;0;316;462;-728;-4093;-152;-86;16
178009;1;5;0;316;428;-739;-4093;-138;-82;4
178019;1;5;0;316;392;-745;-4063;-126;-81;-23
178029;1;5;0;316;397;-740;-4041;-125;-84;-42
178039;1;5;0;316;412;-754;-4031;-126;-74;-61
178049;1;5;0;316;423;-752;-4006;-122;-72;-105
178059;1;5;0;316;424;-721;-3980;-142;-79;-142
178069;1;5;0;316;464;-694;-4050;-154;-69;-129
178079;1;5;0;317;486;-718;-4082;-165;-49;-110
178089;1;5;0;317;439;-741;-4100;-167;-25;-117
178099;1;5;0;317;405;-740;-4097;-164;-15;-140
178109;1;5;0;317;405;-754;-4072;-144;-37;-179
178119;1;5;0;317;423;-737;-4035;-139;-58;-219
178129;1;5;0;317;466;-712;-4029;-150;-68;-225
178139;1;5;0;317;482;-683;-4052;-158;-60;-203
178149;1;5;0;317;477;-705;-4079;-165;-45;-165
178159;1;5;0;317;467;-705;-4108;-175;-17;-145
178169;1;5;0;317;457;-699;-4125;-161;-3;-127
178179;1;5;0;317;468;-729;-4139;-152;7;-121
178189;1;5;0;317;471;-750;-4110;-152;8;-121
178199;1;5;0;317;465;-756;-4080;-140;-14;-150
178209;1;5;0;317;463;-758;-4064;-151;-38;-194
178219;1;5;0;317;490;-731;-4055;-144;-58;-214
178229;1;5;0;317;455;-717;-4037;-138;-52;-217
178239;1;5;0;317;450;-731;-4002;-141;-47;-190
178249;1;5;0;317;440;-709;-4022;-163;-52;-170
178259;1;5;0;317;454;-697;-4044;-189;-57;-154
178269;1;5;0;317;495;-720;-4054;-189;-77;-151
178279;1;5;0;317;500;-714;-4079;-181;-100;-166
178289;1;5;0;317;507;-718;-4106;-162;-110;-175
178299;1;5;0;317;504;-726;-4114;-163;-77;-177
178309;1;5;0;317;447;-743;-4076;-164;-58;-166
178319;1;5;0;317;397;-735;-4055;-161;-59;-161
178329;1;5;0;317;392;-730;-4025;-144;-65;-176
178339;1;5;0;317;389;-722;-3978;-138;-75;-184
178349;1;5;0;317;421;-715;-3994;-156;-121;-182
178359;1;5;0;317;492;-732;-4063;-184;-161;-189
178369;1;5;0;317;527;-738;-4105;-184;-113;-214
178379;1;5;0;317;496;-743;-4136;-199;-71;-225
178389;1;5;0;317;466;-766;-4132;-187;-64;-245
178399;1;5;0;317;425;-755;-4057;-182;-90;-270
178409;1;5;0;317;410;-696;-4002;-175;-123;-291
178419;1;5;0;317;438;-660;-4027;-171;-150;-256
178429;1;5;0;317;487;-666;-4071;-189;-149;-205
178439;1;5;0;317;538;-683;-4134;-185;-138;-165
178449;1;5;0;317;541;-683;-4157;-156;-79;-156
178459;1;5;0;317;488;-691;-4120;-125;-49;-135
178469;1;5;0;317;469;-679;-4092;-116;-51;-120
178479;1;5;0;317;533;-594;-4054;-110;-2;-85
178489;1;5;0;317;483;-694;-4076;-115;-72;-77
178499;1;5;0;317;494;-728;-4090;-122;-1;-65
178509;1;5;0;317;445;-745;-4052;-123;10;-80
178519;1;5;0;317;439;-735;-4055;-123;-10;-94
178529;1;5;0;317;482;-733;-4067;-137;-45;-96
178539;1;5;0;317;489;-736;-4090;-139;-59;-95
178549;1;5;0;317;475;-749;-4087;-136;-81;-86
178559;1;5;0;317;465;-722;-4067;-209;6;-76
178569;1;5;0;317;462;-741;-4059;-177;-87;-125
178579;1;5;0;318;455;-745;-4072;-189;-105;-154
178589;1;5;0;318;481;-722;-4067;-182;-116;-174
178599;1;5;0;318;474;-700;-4105;-192;-102;-180
178609;1;5;0;318;491;-711;-4102;-173;-91;-171
178619;1;5;0;318;474;-701;-4078;-175;-77;-153
178629;1;5;0;318;446;-696;-4091;-182;-64;-146
178639;1;5;0;318;468;-706;-4067;-176;-72;-144
178649;1;5;0;318;493;-708;-4062;-177;-86;-143
178659;1;5;0;318;507;-718;-4061;-177;-86;-139
178669;1;5;0;318;501;-712;-4105;-184;-98;-134
178679;1;5;0;318;507;-722;-4095;-183;-89;-141
178689;1;5;0;318;494;-697;-4070;-158;-67;-137
178699;1;5;0;318;442;-690;-4029;-144;-81;-123
178709;1;5;0;318;474;-694;-4037;-134;-123;-108
178719;1;5;0;318;494;-687;-4051;-136;-102;-83
178729;1;5;0;318;502;-707;-4089;-156;-75;-65
178739;1;5;0;318;458;-733;-4100;-149;-69;-74
178749;1;5;0;318;483;-696;-4124;-143;-76;-97
178759;1;5;0;318;527;-698;-4135;-152;-66;-98
178769;1;5;0;318;534;-693;-4134;-143;-30;-79
178779;1;5;0;318;507;-720;-4072;-128;0;-52
178789;1;5;0;318;432;-715;-4041;-125;5;-44
178799;1;5;0;318;405;-728;-4012;-136;-28;-55
178809;1;5;0;318;430;-716;-4048;-145;-52;-60
178819;1;5;0;318;463;-715;-4087;-163;-41;-58
178829;1;5;0;318;494;-712;-4122;-163;-13;-59
178839;1;5;0;318;510;-716;-4126;-157;10;-61
178849;1;5;0;318;497;-721;-4120;-167;31;-58
178859;1;5;0;318;479;-708;-4104;-177;49;-49
178869;1;5;0;318;482;-711;-4098;-172;32;-50
178879;1;5;0;318;517;-702;-4047;-166;15;-48
178889;1;5;0;318;532;-687;-4037;-166;-10;-41
178899;1;5;0;318;536;-682;-4038;-161;-35;-11
178909;1;5;0;318;543;-711;-4079;-161;-37;2
178919;1;5;0;318;523;-719;-4070;-157;-36;8
178929;1;5;0;318;479;-713;-4081;-143;-38;-1
178939;1;5;0;318;450;-702;-4057;-131;-58;-9
178949;1;5;0;318;479;-700;-4048;-138;-77;-1
178959;1;5;0;318;480;-705;-4065;-130;-77;11
178969;1;5;0;318;489;-721;-4059;-147;-59;28
178979;1;5;0;318;491;-706;-4043;-145;-51;49
178989;1;5;0;318;483;-702;-4089;-155;-68;47
178999;1;5;0;318;506;-712;-4096;-134;-74;44
179009;1;5;0;318;521;-719;-4074;-127;-90;53
179019;1;5;0;318;524;-707;-4073;-117;-112;69
179029;1;5;0;318;527;-715;-4078;-111;-129;76
179039;1;5;0;318;522;-716;-4096;-109;-135;94
179049;1;5;0;318;516;-727;-4114;-121;-120;87
179059;1;5;0;318;494;-713;-4091;-102;-111;81
179069;1;5;0;318;455;-725;-4034;-93;-104;77
179079;1;5;0;319;433;-725;-4008;-81;-114;70
179089;1;5;0;319;425;-728;-4001;-91;-139;78
179099;1;5;0;319;437;-749;-4010;-113;-152;69
179109;1;5;0;319;453;-763;-4060;-137;-160;58
179119;1;5;0;319;474;-743;-4096;-163;-154;43
179129;1;5;0;319;496;-734;-4116;-176;-137;26
179139;1;5;0;319;511;-704;-4092;-181;-118;17
179149;1;5;0;319;505;-698;-4068;-163;-107;21
179159;1;5;0;319;479;-694;-4061;-129;-117;30
179169;1;5;0;319;474;-703;-4045;-115;-121;52
179179;1;5;0;319;466;-704;-4052;-119;-143;67
179189;1;5;0;319;487;-711;-4061;-102;-155;78
179199;1;5;0;319;498;-707;-4060;-102;-142;74
179209;1;5;0;319;478;-695;-4052;-89;-126;74
179219;1;5;0;319;466;-717;-4131;-107;-129;87
179229;1;5;0;319;505;-770;-4129;-115;-82;63
179239;1;5;0;319;449;-760;-4094;-111;-33;33
179249;1;5;0;319;413;-746;-4040;-136;-63;21
179259;1;5;0;319;461;-752;-4005;-149;-117;-11
179269;1;5;0;319;500;-732;-3996;-131;-160;-48
179279;1;5;0;319;537;-677;-4015;-109;-169;-39
179289;1;5;0;319;533;-660;-4066;-113;-151;5
179299;1;5;0;319;502;-702;-4112;-110;-131;52
179309;1;5;0;319;464;-741;-4100;-110;-90;65
179319;1;5;0;319;425;-753;-4070;-102;-97;59
179329;1;5;0;319;402;-753;-4018;-108;-120;32
179339;1;5;0;319;438;-755;-4017;-116;-134;-8
179349;1;5;0;319;477;-747;-4031;-126;-124;-40
179359;1;5;0;319;485;-740;-4053;-148;-102;-55
179369;1;5;0;319;447;-733;-4059;-170;-52;-75
179379;1;5;0;319;436;-736;-4045;-169;-43;-89
179389;1;5;0;319;442;-726;-4049;-171;-64;-113
179399;1;5;0;319;489;-728;-4036;-160;-80;-120
179409;1;5;0;319;502;-730;-4027;-160;-85;-126
179419;1;5;0;319;485;-735;-4008;-169;-86;-123
179429;1;5;0;319;488;-741;-4032;-188;-100;-134
179439;1;5;0;319;506;-727;-4074;-210;-102;-161
179449;1;5;0;319;509;-721;-4074;-213;-101;-167
179459;1;5;0;319;500;-703;-4064;-214;-91;-153
179469;1;5;0;319;477;-710;-4073;-212;-84;-123
179479;1;5;0;319;462;-722;-4093;-214;-83;-107
179489;1;5;0;319;446;-724;-4101;-209;-80;-96
179499;1;5;0;319;449;-730;-4100;-200;-74;-105
179509;1;5;0;319;477;-718;-4086;-196;-67;-129
179519;1;5;0;319;471;-700;-4064;-181;-83;-137
179529;1;5;0;319;508;-685;-4081;-185;-59;-124
179539;1;5;0;319;517;-704;-4100;-188;-44;-110
179549;1;5;0;319;529;-730;-4111;-198;-18;-107
179559;1;5;0;319;498;-713;-4069;-191;-21;-91
179569;1;5;0;319;462;-707;-4030;-177;-76;-82
179579;1;5;0;320;491;-723;-4066;-190;-109;-93
179589;1;5;0;320;522;-703;-4082;-185;-118;-85
179599;1;5;0;320;517;-711;-4098;-165;-121;-71
179609;1;5;0;320;465;-740;-4083;-158;-123;-67
179619;1;5;0;320;426;-732;-4063;-150;-115;-97
179629;1;5;0;320;426;-716;-4030;-147;-135;-101
179639;1;5;0;320;468;-708;-4046;-151;-129;-87
179649;1;5;0;320;502;-699;-4095;-163;-96;-66
179659;1;5;0;320;499;-703;-4119;-175;-40;-47
179669;1;5;0;320;482;-710;-4140;-165;-25;-45
179679;1;5;0;320;485;-718;-4094;-143;-7;-65
179689;1;5;0;320;492;-707;-4065;-131;-17;-85
179699;1;5;0;320;479;-702;-4044;-118;-20;-83
179709;1;5;0;320;479;-712;-4041;-122;-13;-68
179719;1;5;0;320;455;-729;-4056;-122;-14;-53
179729;1;5;0;320;453;-734;-4059;-143;-15;-64
179739;1;5;0;320;448;-740;-4066;-146;-24;-86
179749;1;5;0;320;471;-736;-4094;-148;-32;-104
179759;1;5;0;320;498;-719;-4088;-159;-31;-118
179769;1;5;0;320;521;-723;-4073;-159;-34;-116
179779;1;5;0;320;502;-699;-4048;-159;-33;-102
179789;1;5;0;320;502;-720;-4035;-153;-46;-80
179799;1;5;0;320;474;-729;-4038;-143;-69;-98
179809;1;5;0;320;485;-734;-4007;-142;-120;-124
179819;1;5;0;320;525;-724;-3988;-148;-167;-138
179829;1;5;0;320;530;-713;-4037;-169;-184;-136
179839;1;5;0;320;530;-696;-4062;-172;-178;-121
179849;1;5;0;320;506;-696;-4083;-175;-157;-95
179859;1;5;0;320;474;-695;-4093;-167;-140;-77
179869;1;5;0;320;462;-705;-4089;-150;-126;-65
179879;1;5;0;320;469;-701;-4079;-145;-124;-69
179889;1;5;0;320;489;-704;-4068;-133;-117;-73
179899;1;5;0;320;484;-711;-4072;-132;-111;-82
179909;1;5;0;320;504;-708;-4089;-143;-120;-77
179919;1;5;0;320;506;-709;-4072;-135;-114;-66
179929;1;5;0;320;503;-727;-4106;-145;-90;-42
179939;1;5;0;320;493;-728;-4077;-145;-84;-43
179949;1;5;0;320;473;-726;-4051;-146;-107;-43
179959;1;5;0;320;474;-719;-4052;-150;-140;-72
179969;1;5;0;320;474;-723;-4046;-144;-165;-89
179979;1;5;0;320;492;-721;-4082;-149;-149;-104
179989;1;5;0;320;491;-716;-4089;-156;-141;-92
179999;1;5;0;320;489;-720;-4095;-153;-134;-85
180009;1;5;0;320;475;-718;-4082;-144;-103;-111
180019;1;5;0;320;448;-696;-4054;-117;-89;-107
180029;1;5;0;320;427;-712;-4046;-135;-100;-88
180039;1;5;0;320;497;-747;-4058;-171;-118;-110
180049;1;5;0;320;520;-736;-4043;-169;-102;-127
180059;1;5;0;320;459;-709;-4053;-165;-96;-133
180069;1;5;0;320;471;-742;-4080;-195;-119;-145
180079;1;5;0;321;505;-719;-4102;-169;-114;-155
180089;1;5;0;321;464;-704;-4081;-150;-109;-154
180099;1;5;0;321;445;-702;-4077;-125;-107;-148
180109;1;5;0;321;435;-712;-4101;-136;-98;-136
180119;1;5;0;321;461;-731;-4122;-145;-81;-135
180129;1;5;0;321;472;-736;-4089;-131;-63;-150
180139;1;5;0;321;474;-721;-4076;-124;-48;-192
180149;1;5;0;321;492;-697;-4057;-121;-54;-228
180159;1;5;0;321;540;-665;-4065;-126;-43;-214
180169;1;5;0;321;562;-662;-4058;-122;-15;-172
180179;1;5;0;321;544;-688;-4061;-118;11;-116
180189;1;5;0;321;489;-726;-4063;-118;13;-108
180199;1;5;0;321;467;-748;-4062;-115;-35;-124
180209;1;5;0;321;466;-749;-4028;-117;-68;-148
180219;1;5;0;321;478;-744;-4020;-125;-106;-171
180229;1;5;0;321;502;-737;-4059;-137;-134;-170
180239;1;5;0;321;492;-731;-4073;-146;-118;-163
180249;1;5;0;321;457;-747;-4112;-153;-94;-155
180259;1;5;0;321;430;-730;-4103;-150;-95;-161
180269;1;5;0;321;453;-713;-4094;-157;-96;-177
180279;1;5;0;321;475;-711;-4064;-143;-108;-187
180289;1;5;0;321;517;-693;-4049;-149;-122;-205
180299;1;5;0;321;551;-686;-4083;-147;-130;-190
180309;1;5;0;321;570;-684;-4111;-150;-116;-172
180319;1;5;0;321;579;-668;-4120;-151;-91;-134
180329;1;5;0;321;543;-681;-4119;-144;-61;-97
180339;1;5;0;321;507;-697;-4090;-147;-37;-68
180349;1;5;0;321;473;-720;-4082;-149;-22;-67
180359;1;5;0;321;467;-735;-4057;-156;-44;-78
180369;1;5;0;321;485;-737;-4061;-150;-40;-100
180379;1;5;0;321;484;-710;-4035;-137;-40;-113
180389;1;5;0;321;484;-698;-4028;-140;-80;-107
180399;1;5;0;321;532;-709;-4038;-143;-97;-94
180409;1;5;0;321;525;-715;-4060;-151;-81;-72
180419;1;5;0;321;474;-703;-4094;-159;-57;-49
180429;1;5;0;321;454;-723;-4099;-148;-67;-49
180439;1;5;0;321;488;-731;-4098;-143;-60;-74
180449;1;5;0;321;493;-720;-4054;-145;-61;-96
180459;1;5;0;321;498;-704;-4075;-151;-54;-87
180469;1;5;0;321;505;-703;-4081;-142;-38;-72
180479;1;5;0;321;466;-712;-4091;-147;-29;-58
180489;1;5;0;321;477;-737;-4093;-140;-35;-55
180499;1;5;0;321;492;-728;-4069;-148;-36;-68
180509;1;5;0;321;507;-712;-4061;-142;-43;-89
180519;1;5;0;321;541;-708;-4033;-140;-58;-92
180529;1;5;0;321;530;-709;-4079;-151;-52;-78
180539;1;5;0;321;516;-719;-4093;-142;-51;-59
180549;1;5;0;321;513;-713;-4065;-156;-49;-47
180559;1;5;0;321;496;-701;-4033;-161;-72;-35
180569;1;5;0;321;498;-681;-4048;-163;-100;-13
180579;1;5;0;322;506;-687;-4048;-149;-116;21
180589;1;5;0;322;526;-720;-4103;-143;-96;37
180599;1;5;0;322;530;-735;-4140;-140;-40;43
180609;1;5;0;322;535;-742;-4140;-148;16;40
180619;1;5;0;322;518;-738;-4093;-142;39;25
180629;1;5;0;322;516;-742;-4044;-142;25;5
180639;1;5;0;322;510;-723;-4002;-150;-31;-22
180649;1;5;0;322;526;-712;-3989;-166;-131;-45
180659;1;5;0;322;565;-679;-4045;-180;-192;-31
180669;1;5;0;322;584;-673;-4117;-180;-185;13
180679;1;5;0;322;555;-682;-4177;-171;-126;76
180689;1;5;0;322;514;-703;-4161;-162;-44;111
180699;1;5;0;322;471;-717;-4059;-135;-14;104
180709;1;5;0;322;417;-716;-4018;-106;-53;63
180719;1;5;0;322;468;-709;-3983;-106;-125;37
180729;1;5;0;322;525;-701;-4016;-115;-172;44
180739;1;5;0;322;579;-697;-4080;-138;-173;73
180749;1;5;0;322;562;-696;-4134;-137;-135;92
180759;1;5;0;322;526;-711;-4135;-137;-74;91
180769;1;5;0;322;486;-729;-4081;-112;-43;73
180779;1;5;0;322;451;-726;-4011;-85;-51;59
180789;1;5;0;322;412;-701;-3975;-80;-98;83
180799;1;5;0;322;453;-716;-4009;-109;-106;91
180809;1;5;0;322;477;-738;-4055;-126;-122;100
180819;1;5;0;322;484;-762;-4077;-138;-137;89
180829;1;5;0;322;494;-767;-4098;-157;-154;59
180839;1;5;0;322;510;-752;-4110;-173;-159;27
180849;1;5;0;322;515;-741;-4084;-160;-174;-6
180859;1;5;0;322;521;-703;-4031;-141;-179;-8
180869;1;5;0;322;477;-676;-4025;-116;-180;15
180879;1;5;0;322;454;-683;-4023;-121;-202;62
180889;1;5;0;322;509;-723;-4077;-150;-210;63
180899;1;5;0;322;511;-737;-4080;-160;-173;49
180909;1;5;0;322;468;-735;-4093;-162;-124;45
180919;1;5;0;322;487;-767;-4123;-164;-101;14
180929;1;5;0;322;477;-762;-4052;-157;-89;-45
180939;1;5;0;322;474;-710;-3997;-122;-124;-64
180949;1;5;0;322;474;-685;-4009;-132;-158;-56
180959;1;5;0;322;523;-695;-4064;-136;-171;-29
180969;1;5;0;322;551;-699;-4120;-135;-155;14
180979;1;5;0;322;532;-696;-4110;-130;-136;59
180989;1;5;0;322;497;-707;-4096;-109;-141;83
180999;1;5;0;322;497;-718;-4090;-93;-123;89
181009;1;5;0;322;481;-732;-4099;-90;-100;78
181019;1;5;0;322;469;-747;-4060;-84;-88;67
181029;1;5;0;322;463;-737;-4035;-92;-85;48
181039;1;5;0;322;464;-739;-4033;-99;-112;42
181049;1;5;0;322;477;-742;-4069;-127;-132;46
181059;1;5;0;322;493;-726;-4085;-128;-134;39
181069;1;5;0;322;483;-740;-4083;-135;-115;31
181079;1;5;0;323;444;-733;-4071;-110;-102;26
181089;1;5;0;323;445;-744;-4056;-104;-90;5
181099;1;5;0;323;443;-751;-4044;-104;-96;-19
181109;1;5;0;323;453;-753;-4019;-121;-108;-38
181119;1;5;0;323;473;-753;-4042;-145;-118;-45
181129;1;5;0;323;481;-744;-4069;-153;-115;-50
181139;1;5;0;323;481;-739;-4067;-172;-88;-58
181149;1;5;0;323;471;-738;-4073;-164;-75;-73
181159;1;5;0;323;454;-726;-4063;-168;-59;-88
181169;1;5;0;323;464;-705;-4041;-163;-64;-92
181179;1;5;0;323;481;-708;-4017;-152;-76;-91
181189;1;5;0;323;497;-718;-4044;-163;-56;-98
181199;1;5;0;323;499;-722;-4049;-167;-67;-101
181209;1;5;0;323;506;-742;-4088;-177;-63;-120
181219;1;5;0;323;510;-734;-4053;-174;-53;-135
181229;1;5;0;323;483;-709;-4036;-156;-79;-144
181239;1;5;0;323;501;-719;-4061;-166;-76;-134
181249;1;5;0;323;493;-717;-4037;-155;-56;-114
181259;1;5;0;323;462;-701;-4044;-154;-69;-95
181269;1;5;0;323;468;-727;-4042;-163;-85;-80
181279;1;5;0;323;499;-725;-4086;-180;-96;-93
181289;1;5;0;323;516;-722;-4108;-184;-86;-102
181299;1;5;0;323;530;-716;-4107;-178;-53;-104
181309;1;5;0;323;518;-717;-4115;-190;-11;-85
181319;1;5;0;323;478;-713;-4063;-192;3;-83
181329;1;5;0;323;456;-725;-4056;-186;-13;-72
181339;1;5;0;323;443;-746;-4059;-190;-28;-76
181349;1;5;0;323;438;-755;-4080;-190;-58;-90
181359;1;5;0;323;454;-748;-4093;-189;-75;-118
181369;1;5;0;323;490;-727;-4071;-198;-83;-150
181379;1;5;0;323;500;-715;-4082;-187;-69;-172
181389;1;5;0;323;514;-715;-4084;-183;-36;-176
181399;1;5;0;323;493;-719;-4086;-181;-10;-173
181409;1;5;0;323;457;-720;-4040;-166;-10;-166
181419;1;5;0;323;451;-726;-4031;-157;-27;-160
181429;1;5;0;323;463;-725;-4046;-174;-52;-161
181439;1;5;0;323;483;-719;-4056;-169;-72;-167
181449;1;5;0;323;504;-706;-4054;-155;-92;-168
181459;1;5;0;323;541;-685;-4073;-145;-101;-171
181469;1;5;0;323;550;-690;-4106;-136;-92;-165
181479;1;5;0;323;563;-692;-4113;-126;-79;-144
181489;1;5;0;323;543;-699;-4076;-132;-68;-123
181499;1;5;0;323;517;-717;-4074;-147;-84;-96
181509;1;5;0;323;520;-739;-4039;-160;-109;-92
181519;1;5;0;323;513;-731;-4054;-174;-119;-106
181529;1;5;0;323;513;-710;-4071;-186;-131;-107
181539;1;5;0;323;510;-716;-4064;-187;-107;-116
181549;1;5;0;323;498;-732;-4062;-174;-103;-125
181559;1;5;0;323;473;-719;-4068;-170;-101;-131
181569;1;5;0;323;455;-730;-4074;-171;-102;-138
181579;1;5;0;324;437;-738;-4072;-150;-121;-151
181589;1;5;0;324;475;-727;-4060;-162;-132;-149
181599;1;5;0;324;472;-737;-4054;-170;-136;-150
181609;1;5;0;324;497;-728;-4075;-166;-139;-164
181619;1;5;0;324;497;-727;-4099;-180;-131;-183
181629;1;5;0;324;522;-719;-4096;-184;-116;-184
181639;1;5;0;324;522;-729;-4079;-174;-83;-191
181649;1;5;0;324;500;-714;-4033;-160;-51;-197
181659;1;5;0;324;447;-680;-4025;-150;-77;-189
181669;1;5;0;324;486;-686;-4097;-181;-117;-154
181679;1;5;0;324;552;-733;-4114;-196;-95;-144
181689;1;5;0;324;496;-721;-4100;-182;-50;-156
181699;1;5;0;324;466;-740;-4100;-186;-56;-185
181709;1;5;0;324;491;-729;-4064;-169;-70;-223
181719;1;5;0;324;506;-707;-4016;-147;-67;-230
181729;1;5;0;324;502;-680;-4015;-132;-63;-213
181739;1;5;0;324;493;-690;-4032;-139;-85;-186
181749;1;5;0;324;498;-684;-4058;-152;-104;-161
181759;1;5;0;324;531;-707;-4097;-146;-119;-135
181769;1;5;0;324;506;-721;-4090;-137;-107;-128
181779;1;5;0;324;488;-715;-4097;-123;-77;-154
181789;1;5;0;324;505;-700;-4080;-123;-94;-164
181799;1;5;0;324;519;-690;-4078;-131;-76;-167
181809;1;5;0;324;530;-697;-4081;-110;-45;-147
181819;1;5;0;324;509;-700;-4066;-110;-41;-128
181829;1;5;0;324;483;-738;-4039;-113;-59;-127
181839;1;5;0;324;481;-742;-4030;-110;-99;-143
181849;1;5;0;324;481;-727;-4020;-108;-157;-167
181859;1;5;0;324;497;-705;-4035;-118;-189;-174
181869;1;5;0;324;541;-708;-4073;-128;-183;-158
181879;1;5;0;324;544;-698;-4094;-146;-157;-159
181889;1;5;0;324;532;-711;-4081;-158;-122;-146
181899;1;5;0;324;514;-729;-4074;-144;-121;-142
181909;1;5;0;324;496;-723;-4071;-155;-125;-160
181919;1;5;0;324;494;-732;-4079;-152;-152;-186
181929;1;5;0;324;506;-711;-4050;-169;-162;-191
181939;1;5;0;324;506;-709;-4058;-155;-172;-187
181949;1;5;0;324;491;-702;-4079;-156;-160;-169
181959;1;5;0;324;488;-693;-4077;-149;-151;-165
181969;1;5;0;324;496;-694;-4084;-138;-147;-141
181979;1;5;0;324;473;-721;-4080;-135;-98;-145
181989;1;5;0;324;472;-735;-4100;-132;-98;-165
181999;1;5;0;324;490;-757;-4095;-147;-103;-207
182009;1;5;0;324;497;-713;-4041;-137;-92;-232
182019;1;5;0;324;496;-686;-4004;-127;-113;-211
182029;1;5;0;324;494;-669;-4032;-164;-118;-182
182039;1;5;0;324;542;-703;-4091;-170;-128;-159
182049;1;5;0;324;541;-703;-4105;-174;-112;-132
182059;1;5;0;324;507;-693;-4098;-155;-101;-104
182069;1;5;0;324;501;-707;-4093;-145;-105;-94
182079;1;5;0;325;507;-699;-4102;-134;-109;-100
182089;1;5;0;325;496;-701;-4097;-135;-97;-97
182099;1;5;0;325;481;-712;-4085;-135;-84;-73
182109;1;5;0;325;497;-710;-4090;-146;-38;-89
182119;1;5;0;325;488;-712;-4068;-147;-51;-85
182129;1;5;0;325;505;-696;-4055;-150;-58;-90
182139;1;5;0;325;527;-689;-4071;-149;-65;-67
182149;1;5;0;325;527;-699;-4069;-150;-56;-40
182159;1;5;0;325;548;-711;-4083;-150;-55;-25
182169;1;5;0;325;519;-713;-4049;-147;-66;-24
182179;1;5;0;325;502;-726;-4034;-147;-78;-29
182189;1;5;0;325;491;-735;-4065;-158;-82;-33
182199;1;5;0;325;469;-740;-4072;-165;-89;-47
182209;1;5;0;325;475;-731;-4080;-162;-100;-63
182219;1;5;0;325;491;-710;-4064;-165;-108;-73
182229;1;5;0;325;512;-703;-4079;-165;-115;-70
182239;1;5;0;325;528;-690;-4072;-156;-128;-62
182249;1;5;0;325;530;-688;-4068;-154;-124;-39
182259;1;5;0;325;525;-696;-4064;-150;-130;-17
182269;1;5;0;325;542;-706;-4048;-153;-127;-10
182279;1;5;0;325;514;-703;-4053;-156;-127;1
182289;1;5;0;325;505;-703;-4041;-153;-115;8
182299;1;5;0;325;517;-704;-4060;-166;-108;19
182309;1;5;0;325;503;-704;-4063;-165;-99;31
182319;1;5;0;325;521;-705;-4084;-160;-98;38
182329;1;5;0;325;515;-711;-4091;-155;-107;38
182339;1;5;0;325;504;-708;-4092;-142;-123;45
182349;1;5;0;325;513;-706;-4088;-132;-128;50
182359;1;5;0;325;498;-708;-4065;-139;-120;66
182369;1;5;0;325;497;-718;-4066;-137;-119;79
182379;1;5;0;325;498;-693;-4054;-143;-117;83
182389;1;5;0;325;493;-706;-4052;-142;-117;88
182399;1;5;0;325;487;-714;-4045;-155;-114;84
182409;1;5;0;325;505;-719;-4047;-151;-116;88
182419;1;5;0;325;497;-715;-4060;-141;-138;86
182429;1;5;0;325;501;-705;-4082;-143;-152;83
182439;1;5;0;325;525;-711;-4113;-137;-148;76
182449;1;5;0;325;516;-705;-4089;-122;-107;79
182459;1;5;0;325;475;-697;-4068;-124;-96;112
182469;1;5;0;325;474;-727;-4091;-145;-122;127
182479;1;5;0;325;489;-754;-4072;-137;-126;112
182489;1;5;0;325;446;-729;-4059;-128;-110;96
182499;1;5;0;325;469;-746;-4050;-136;-145;60
182509;1;5;0;325;480;-730;-4055;-139;-159;39
182519;1;5;0;325;498;-704;-4038;-120;-165;20
182529;1;5;0;325;476;-684;-4036;-119;-156;30
182539;1;5;0;325;494;-688;-4065;-125;-156;56
182549;1;5;0;325;520;-700;-4102;-123;-151;91
182559;1;5;0;325;512;-713;-4111;-106;-125;119
182569;1;5;0;325;472;-711;-4082;-100;-132;131
182579;1;5;0;326;476;-711;-4065;-97;-133;121
182589;1;5;0;326;490;-720;-4070;-93;-139;99
182599;1;5;0;326;515;-722;-4079;-92;-130;90
182609;1;5;0;326;501;-710;-4066;-94;-104;96
182619;1;5;0;326;454;-740;-4067;-90;-86;111
182629;1;5;0;326;444;-740;-4061;-93;-93;104
182639;1;5;0;326;445;-752;-4049;-92;-121;83
182649;1;5;0;326;439;-749;-4038;-106;-162;55
182659;1;5;0;326;466;-738;-4071;-106;-177;25
182669;1;5;0;326;494;-726;-4067;-110;-170;9
182679;1;5;0;326;494;-704;-4075;-112;-159;10
182689;1;5;0;326;494;-719;-4085;-125;-136;30
182699;1;5;0;326;477;-737;-4078;-136;-125;34
182709;1;5;0;326;465;-730;-4078;-126;-134;30
182719;1;5;0;326;469;-715;-4057;-129;-141;24
182729;1;5;0;326;478;-716;-4048;-123;-146;28
182739;1;5;0;326;466;-722;-4058;-120;-158;31
182749;1;5;0;326;483;-705;-4060;-112;-160;31
182759;1;5;0;326;468;-713;-4067;-116;-164;38
182769;1;5;0;326;487;-727;-4082;-108;-152;50
182779;1;5;0;326;475;-747;-4093;-112;-126;43
182789;1;5;0;326;455;-745;-4084;-119;-112;24
182799;1;5;0;326;464;-749;-4039;-129;-98;4
182809;1;5;0;326;445;-716;-4019;-119;-125;-10
182819;1;5;0;326;465;-733;-4048;-123;-147;-27
182829;1;5;0;326;490;-731;-4047;-120;-139;-17
182839;1;5;0;326;459;-733;-4066;-123;-139;4
182849;1;5;0;326;445;-733;-4070;-121;-157;12
182859;1;5;0;326;454;-732;-4063;-131;-155;7
182869;1;5;0;326;450;-723;-4052;-130;-145;7
182879;1;5;0;326;479;-733;-4079;-133;-123;2
182889;1;5;0;326;444;-732;-4089;-139;-104;1
182899;1;5;0;326;436;-737;-4085;-135;-75;7
182909;1;5;0;326;428;-747;-4052;-144;-52;-9
182919;1;5;0;326;428;-756;-4031;-148;-38;-29
182929;1;5;0;326;436;-732;-4023;-139;-54;-61
182939;1;5;0;326;452;-729;-4043;-140;-66;-66
182949;1;5;0;326;467;-743;-4048;-154;-57;-75
182959;1;5;0;326;476;-744;-4062;-161;-40;-94
182969;1;5;0;326;466;-745;-4061;-171;-20;-112
182979;1;5;0;326;437;-731;-4049;-184;-8;-136
182989;1;5;0;326;449;-733;-4054;-188;-3;-151
182999;1;5;0;326;460;-729;-4084;-191;-5;-158
183009;1;5;0;326;473;-725;-4078;-180;-15;-160
183019;1;5;0;326;481;-722;-4066;-188;-21;-159
183029;1;5;0;326;500;-720;-4083;-175;-30;-145
183039;1;5;0;326;480;-725;-4068;-161;-29;-129
183049;1;5;0;326;480;-727;-4060;-159;-33;-116
183059;1;5;0;326;456;-729;-4054;-171;-32;-117
183069;1;5;0;326;439;-746;-4052;-175;-35;-121
183079;1;5;0;327;442;-744;-4062;-163;-46;-130
183089;1;5;0;327;469;-732;-4063;-166;-51;-147
183099;1;5;0;327;493;-723;-4093;-171;-50;-147
183109;1;5;0;327;523;-728;-4097;-165;-32;-147
183119;1;5;0;327;513;-733;-4084;-170;-22;-134
183129;1;5;0;327;478;-731;-4055;-181;-13;-124
183139;1;5;0;327;446;-732;-4042;-173;-30;-122
183149;1;5;0;327;445;-735;-4044;-178;-37;-124
183159;1;5;0;327;466;-723;-4069;-186;-48;-138
183169;1;5;0;327;477;-721;-4066;-181;-53;-142
183179;1;5;0;327;484;-736;-4092;-177;-53;-147
183189;1;5;0;327;485;-729;-4078;-166;-51;-152
183199;1;5;0;327;486;-715;-4093;-166;-50;-156
183209;1;5;0;327;487;-720;-4068;-166;-53;-161
183219;1;5;0;327;482;-713;-4054;-167;-65;-158
183229;1;5;0;327;480;-702;-4039;-161;-67;-151
183239;1;5;0;327;473;-721;-4047;-162;-67;-137
183249;1;5;0;327;479;-721;-4050;-178;-68;-139
183259;1;5;0;327;511;-717;-4085;-177;-78;-144
183269;1;5;0;327;517;-721;-4071;-169;-57;-152
183279;1;5;0;327;496;-697;-4034;-164;-41;-133
183289;1;5;0;327;461;-692;-4066;-175;-75;-96
183299;1;5;0;327;506;-753;-4100;-175;-84;-96
183309;1;5;0;327;483;-737;-4100;-155;-66;-97
183319;1;5;0;327;420;-754;-4094;-149;-109;-112
183329;1;5;0;327;476;-765;-4069;-150;-147;-166
183339;1;5;0;327;522;-718;-4034;-140;-168;-195
183349;1;5;0;327;523;-683;-4014;-148;-163;-184
183359;1;5;0;327;513;-676;-4030;-163;-147;-152
183369;1;5;0;327;506;-701;-4071;-158;-136;-121
183379;1;5;0;327;479;-712;-4101;-163;-116;-115
183389;1;5;0;327;467;-721;-4078;-153;-102;-118
183399;1;5;0;327;462;-703;-4071;-130;-99;-125
183409;1;5;0;327;470;-719;-4069;-149;-80;-135
183419;1;5;0;327;505;-714;-4089;-156;-58;-141
183429;1;5;0;327;479;-729;-4077;-146;-31;-138
183439;1;5;0;327;467;-738;-4078;-155;-6;-144
183449;1;5;0;327;473;-724;-4073;-145;-10;-149
183459;1;5;0;327;464;-730;-4051;-151;-31;-162
183469;1;5;0;327;475;-732;-4067;-148;-56;-174
183479;1;5;0;327;498;-742;-4054;-163;-66;-185
183489;1;5;0;327;500;-729;-4057;-161;-79;-199
183499;1;5;0;327;497;-720;-4068;-181;-68;-205
183509;1;5;0;327;506;-725;-4054;-178;-64;-211
183519;1;5;0;327;487;-723;-4068;-185;-59;-209
183529;1;5;0;327;487;-721;-4085;-186;-56;-211
183539;1;5;0;327;495;-697;-4084;-172;-64;-205
183549;1;5;0;327;498;-699;-4061;-167;-71;-195
183559;1;5;0;327;520;-708;-4084;-155;-66;-178
183569;1;5;0;327;515;-707;-4076;-159;-67;-167
183579;1;5;0;328;514;-694;-4049;-151;-62;-150
183589;1;5;0;328;507;-699;-4036;-142;-82;-132
183599;1;5;0;328;503;-696;-4067;-136;-93;-129
183609;1;5;0;328;517;-705;-4090;-143;-97;-129
183619;1;5;0;328;540;-711;-4079;-138;-81;-137
183629;1;5;0;328;502;-701;-4005;-121;-87;-126
183639;1;5;0;328;483;-703;-4038;-126;-109;-108
183649;1;5;0;328;503;-720;-4064;-129;-117;-112
183659;1;5;0;328;504;-739;-4075;-136;-132;-125
183669;1;5;0;328;504;-730;-4068;-156;-116;-136
183679;1;5;0;328;477;-732;-4083;-153;-109;-151
183689;1;5;0;328;466;-736;-4071;-151;-123;-173
183699;1;5;0;328;488;-715;-4057;-150;-127;-183
183709;1;5;0;328;496;-717;-4070;-155;-116;-187
183719;1;5;0;328;472;-718;-4079;-149;-104;-183
183729;1;5;0;328;487;-732;-4081;-149;-93;-189
183739;1;5;0;328;493;-721;-4057;-149;-74;-203
183749;1;5;0;328;481;-709;-4055;-146;-68;-205
183759;1;5;0;328;485;-709;-4070;-149;-62;-204
183769;1;5;0;328;498;-699;-4065;-152;-68;-184
183779;1;5;0;328;511;-703;-4091;-141;-47;-169
183789;1;5;0;328;501;-698;-4099;-146;-38;-145
183799;1;5;0;328;510;-693;-4078;-146;-30;-127
183809;1;5;0;328;524;-690;-4068;-146;-29;-108
183819;1;5;0;328;538;-693;-4066;-148;-22;-86
183829;1;5;0;328;528;-701;-4087;-155;-17;-62
183839;1;5;0;328;545;-713;-4099;-146;-30;-59
183849;1;5;0;328;553;-729;-4099;-155;-42;-52
183859;1;5;0;328;538;-713;-4103;-158;-42;-53
183869;1;5;0;328;537;-717;-4071;-150;-59;-61
183879;1;5;0;328;524;-703;-4065;-150;-70;-56
183889;1;5;0;328;501;-707;-4052;-157;-86;-42
183899;1;5;0;328;480;-717;-4057;-163;-94;-39
183909;1;5;0;328;499;-717;-4063;-168;-97;-35
183919;1;5;0;328;506;-702;-4073;-166;-96;-33
183929;1;5;0;328;544;-709;-4064;-157;-93;-19
183939;1;5;0;328;537;-699;-4095;-166;-88;-1
183949;1;5;0;328;547;-706;-4079;-161;-90;26
183959;1;5;0;328;538;-715;-4082;-157;-89;36
183969;1;5;0;328;498;-723;-4082;-160;-85;40
183979;1;5;0;328;500;-740;-4084;-154;-85;30
183989;1;5;0;328;486;-703;-4055;-154;-89;23
183999;1;5;0;328;474;-702;-4036;-151;-98;32
184009;1;5;0;328;512;-716;-4043;-148;-117;40
184019;1;5;0;328;516;-696;-4068;-137;-128;52
184029;1;5;0;328;541;-706;-4080;-142;-132;70
184039;1;5;0;328;553;-710;-4083;-146;-116;90
184049;1;5;0;328;518;-731;-4058;-154;-110;92
184059;1;5;0;328;509;-725;-4075;-156;-107;84
184069;1;5;0;328;499;-716;-4074;-150;-109;78
184079;1;5;0;329;479;-713;-4073;-146;-100;79
184089;1;5;0;329;467;-705;-4061;-134;-98;83
184099;1;5;0;329;483;-709;-4067;-128;-111;88
184109;1;5;0;329;507;-712;-4080;-132;-120;104
184119;1;5;0;329;526;-717;-4086;-137;-121;113
184129;1;5;0;329;523;-710;-4083;-121;-111;119
184139;1;5;0;329;496;-719;-4060;-122;-104;123
184149;1;5;0;329;495;-742;-4050;-118;-120;105
184159;1;5;0;329;475;-716;-4039;-117;-144;89
184169;1;5;0;329;495;-704;-4037;-97;-152;83
184179;1;5;0;329;507;-694;-4029;-76;-142;102
184189;1;5;0;329;468;-690;-4046;-90;-160;135
184199;1;5;0;329;516;-736;-4078;-113;-191;149
184209;1;5;0;329;533;-753;-4074;-98;-171;137
184219;1;5;0;329;461;-739;-4069;-101;-153;129
184229;1;5;0;329;465;-762;-4063;-111;-173;94
184239;1;5;0;329;478;-737;-4027;-116;-205;46
184249;1;5;0;329;484;-709;-3996;-102;-240;34
184259;1;5;0;329;485;-687;-4049;-97;-249;43
184269;1;5;0;329;507;-694;-4128;-94;-250;63
184279;1;5;0;329;528;-716;-4139;-94;-234;97
184289;1;5;0;329;496;-720;-4098;-70;-236;104
184299;1;5;0;329;461;-707;-4068;-54;-202;117
184309;1;5;0;329;470;-713;-4056;-48;-203;114
184319;1;5;0;329;498;-732;-4062;-61;-190;108
184329;1;5;0;329;491;-732;-4053;-60;-162;115
184339;1;5;0;329;451;-743;-4035;-73;-136;113
184349;1;5;0;329;426;-765;-4043;-92;-152;98
184359;1;5;0;329;427;-768;-4049;-96;-181;68
184369;1;5;0;329;442;-764;-4046;-101;-189;38
184379;1;5;0;329;465;-763;-4064;-91;-188;19
184389;1;5;0;329;464;-767;-4057;-97;-177;5
184399;1;5;0;329;472;-746;-4067;-114;-161;-10
184409;1;5;0;329;465;-742;-4062;-117;-150;-12
184419;1;5;0;329;467;-730;-4061;-126;-156;-9
184429;1;5;0;329;471;-719;-4056;-124;-168;-4
184439;1;5;0;329;472;-725;-4067;-129;-171;2
184449;1;5;0;329;476;-733;-4072;-116;-176;4
184459;1;5;0;329;484;-741;-4057;-114;-167;-1
184469;1;5;0;329;461;-734;-4078;-114;-153;-4
184479;1;5;0;329;465;-746;-4065;-134;-137;-18
184489;1;5;0;329;478;-739;-4064;-129;-125;-22
184499;1;5;0;329;444;-730;-4045;-140;-113;-30
184509;1;5;0;329;438;-753;-4050;-144;-96;-38
184519;1;5;0;329;448;-765;-4056;-165;-92;-60
184529;1;5;0;329;444;-758;-4039;-157;-86;-84
184539;1;5;0;329;413;-738;-4004;-150;-108;-92
184549;1;5;0;329;448;-741;-4046;-159;-130;-120
184559;1;5;0;329;463;-727;-4067;-156;-93;-116
184569;1;5;0;329;445;-739;-4072;-159;-47;-103
184579;1;5;0;330;409;-761;-4054;-161;-35;-119
184589;1;5;0;330;419;-736;-4039;-173;-34;-158
184599;1;5;0;330;457;-731;-4050;-167;-42;-176
184609;1;5;0;330;494;-710;-4052;-173;-31;-160
184619;1;5;0;330;495;-709;-4075;-174;7;-129
184629;1;5;0;330;471;-715;-4079;-165;29;-102
184639;1;5;0;330;452;-738;-4076;-173;45;-89
184649;1;5;0;330;439;-744;-4077;-176;37;-102
184659;1;5;0;330;473;-740;-4066;-181;34;-104
184669;1;5;0;330;486;-734;-4066;-173;19;-102
184679;1;5;0;330;476;-754;-4061;-163;10;-90
184689;1;5;0;330;499;-735;-4067;-169;6;-90
184699;1;5;0;330;487;-729;-4086;-172;8;-90
184709;1;5;0;330;465;-735;-4060;-166;3;-86
184719;1;5;0;330;472;-747;-4080;-172;-9;-85
184729;1;5;0;330;472;-747;-4083;-164;-27;-103
184739;1;5;0;330;485;-731;-4072;-161;-47;-120
184749;1;5;0;330;504;-732;-4047;-150;-61;-113
184759;1;5;0;330;496;-721;-4051;-156;-61;-93
184769;1;5;0;330;483;-728;-4066;-151;-64;-78
184779;1;5;0;330;479;-740;-4058;-150;-64;-76
184789;1;5;0;330;469;-761;-4051;-149;-79;-92
184799;1;5;0;330;486;-739;-4069;-146;-88;-111
184809;1;5;0;330;482;-728;-4078;-150;-88;-110
184819;1;5;0;330;503;-721;-4065;-167;-76;-102
184829;1;5;0;330;539;-725;-4090;-173;-49;-105
184839;1;5;0;330;517;-735;-4079;-167;-33;-102
184849;1;5;0;330;495;-722;-4052;-164;-40;-98
184859;1;5;0;330;479;-708;-4044;-165;-52;-98
184869;1;5;0;330;476;-736;-4066;-165;-71;-109
184879;1;5;0;330;488;-739;-4086;-185;-66;-110
184889;1;5;0;330;476;-746;-4085;-188;-59;-121
184899;1;5;0;330;476;-750;-4101;-190;-54;-137
184909;1;5;0;330;484;-736;-4098;-182;-41;-147
184919;1;5;0;330;471;-733;-4066;-178;-49;-160
184929;1;5;0;330;479;-723;-4040;-179;-57;-162
184939;1;5;0;330;486;-705;-4034;-182;-59;-155
184949;1;5;0;330;476;-730;-4034;-184;-56;-133
184959;1;5;0;330;476;-737;-4060;-188;-46;-123
184969;1;5;0;330;483;-728;-4047;-177;-34;-141
184979;1;5;0;330;458;-727;-4062;-162;-34;-143
184989;1;5;0;330;475;-712;-4089;-184;-48;-137
184999;1;5;0;330;525;-754;-4115;-210;-50;-138
185009;1;5;0;330;516;-768;-4091;-184;-3;-152
185019;1;5;0;330;417;-746;-4060;-184;-10;-168
185029;1;5;0;330;444;-759;-4054;-197;-49;-196
185039;1;5;0;330;479;-740;-4037;-182;-81;-229
185049;1;5;0;330;522;-695;-4045;-168;-105;-229
185059;1;5;0;330;531;-665;-4040;-163;-108;-189
185069;1;5;0;330;533;-687;-4072;-164;-103;-146
185079;1;5;0;331;568;-697;-4094;-167;-78;-125
185089;1;5;0;331;544;-701;-4088;-146;-62;-102
185099;1;5;0;331;504;-709;-4074;-140;-59;-81
185109;1;5;0;331;492;-723;-4077;-133;-59;-74
185119;1;5;0;331;494;-715;-4052;-128;-56;-83
185129;1;5;0;331;510;-706;-4069;-135;-49;-83
185139;1;5;0;331;506;-723;-4079;-130;-47;-80
185149;1;5;0;331;482;-750;-4065;-128;-37;-81
185159;1;5;0;331;484;-740;-4052;-120;-62;-90
185169;1;5;0;331;489;-747;-4070;-129;-95;-108
185179;1;5;0;331;489;-746;-4050;-141;-106;-128
185189;1;5;0;331;525;-736;-4056;-150;-114;-139
185199;1;5;0;331;506;-707;-4065;-150;-115;-132
185209;1;5;0;331;506;-716;-4089;-157;-103;-118
185219;1;5;0;331;495;-720;-4069;-163;-86;-113
185229;1;5;0;331;458;-730;-4072;-159;-98;-110
185239;1;5;0;331;465;-716;-4064;-158;-102;-118
185249;1;5;0;331;497;-711;-4055;-168;-121;-126
185259;1;5;0;331;513;-708;-4080;-160;-121;-111
185269;1;5;0;331;522;-712;-4098;-153;-105;-98
185279;1;5;0;331;519;-719;-4088;-141;-101;-96
185289;1;5;0;331;506;-724;-4073;-150;-92;-102
185299;1;5;0;331;507;-716;-4078;-149;-89;-105
185309;1;5;0;331;501;-722;-4064;-150;-80;-108
185319;1;5;0;331;499;-739;-4073;-162;-80;-125
185329;1;5;0;331;516;-734;-4076;-154;-67;-120
185339;1;5;0;331;490;-724;-4027;-146;-71;-135
185349;1;5;0;331;460;-718;-4028;-141;-95;-134
185359;1;5;0;331;483;-732;-4051;-153;-125;-142
185369;1;5;0;331;536;-732;-4096;-159;-127;-146
185379;1;5;0;331;529;-728;-4088;-158;-125;-141
185389;1;5;0;331;507;-704;-4066;-158;-115;-127
185399;1;5;0;331;489;-716;-4064;-156;-129;-117
185409;1;5;0;331;503;-707;-4045;-145;-133;-111
185419;1;5;0;331;507;-708;-4081;-136;-127;-96
185429;1;5;0;331;501;-713;-4073;-130;-115;-93
185439;1;5;0;331;478;-709;-4070;-142;-106;-97
185449;1;5;0;331;510;-734;-4059;-143;-110;-116
185459;1;5;0;331;497;-727;-4076;-143;-112;-116
185469;1;5;0;331;498;-719;-4033;-136;-110;-117
185479;1;5;0;331;501;-715;-4047;-128;-116;-104
185489;1;5;0;331;497;-722;-4038;-128;-104;-96
185499;1;5;0;331;499;-731;-4077;-128;-119;-98
185509;1;5;0;331;503;-749;-4085;-128;-113;-108
185519;1;5;0;331;490;-740;-4070;-134;-112;-121
185529;1;5;0;331;497;-723;-4063;-141;-105;-135
185539;1;5;0;331;502;-733;-4051;-131;-120;-149
185549;1;5;0;331;501;-726;-4028;-138;-131;-158
185559;1;5;0;331;503;-715;-4066;-142;-141;-144
185569;1;5;0;331;489;-724;-4062;-149;-133;-130
185579;1;5;0;332;488;-731;-4093;-130;-132;-135
185589;1;5;0;332;482;-747;-4074;-127;-131;-139
185599;1;5;0;332;476;-738;-4077;-133;-128;-163
185609;1;5;0;332;495;-729;-4068;-141;-122;-180
185619;1;5;0;332;508;-708;-4046;-147;-102;-180
185629;1;5;0;332;511;-704;-4072;-142;-77;-150
185639;1;5;0;332;506;-709;-4062;-142;-63;-129
185649;1;5;0;332;523;-709;-4077;-142;-45;-129
185659;1;5;0;332;517;-724;-4057;-132;-67;-127
185669;1;5;0;332;497;-728;-4070;-122;-88;-135
185679;1;5;0;332;493;-742;-4068;-120;-107;-151
185689;1;5;0;332;498;-739;-4047;-130;-106;-161
185699;1;5;0;332;524;-739;-4038;-126;-101;-161
185709;1;5;0;332;499;-738;-4038;-128;-107;-152
185719;1;5;0;332;509;-733;-4054;-124;-127;-156
185729;1;5;0;332;500;-682;-3983;-120;-187;-149
185739;1;5;0;332;404;-776;-4136;-108;-356;1
185749;1;5;0;332;443;-790;-4092;-67;-434;-34
185759;1;5;0;332;566;-745;-4086;-98;-303;-125
185769;1;5;0;332;667;-662;-4088;-133;-97;-198
185779;1;5;0;332;575;-653;-4119;-147;-80;-78
185789;1;5;0;332;515;-708;-4075;-142;-47;-46
185799;1;5;0;332;467;-751;-4067;-137;-94;-39
185809;1;5;0;332;499;-736;-4085;-138;-118;-57
185819;1;5;0;332;520;-738;-4088;-165;-101;-61
185829;1;5;0;332;545;-720;-4085;-158;-90;-42
185839;1;5;0;332;530;-697;-4065;-142;-69;-6
185849;1;5;0;332;482;-689;-4069;-151;-66;23
185859;1;5;0;332;480;-735;-4087;-178;-86;39
185869;1;5;0;332;510;-769;-4097;-175;-79;10
185879;1;5;0;332;472;-754;-4096;-163;-54;-14
185889;1;5;0;332;442;-748;-4088;-177;-79;-35
185899;1;5;0;332;482;-761;-4050;-173;-128;-77
185909;1;5;0;332;505;-739;-4050;-172;-155;-92
185919;1;5;0;332;526;-711;-4015;-167;-170;-87
185929;1;5;0;332;539;-672;-4035;-166;-171;-54
185939;1;5;0;332;537;-687;-4058;-172;-161;3
185949;1;5;0;332;537;-701;-4076;-185;-134;53
185959;1;5;0;332;492;-706;-4098;-167;-112;90
185969;1;5;0;332;468;-707;-4089;-147;-121;97
185979;1;5;0;332;492;-706;-4086;-134;-126;90
185989;1;5;0;332;517;-722;-4075;-133;-115;96
185999;1;5;0;332;491;-727;-4066;-134;-91;109
186009;1;5;0;332;486;-718;-4077;-143;-87;125
186019;1;5;0;332;482;-743;-4051;-138;-87;130
186029;1;5;0;332;448;-760;-4028;-126;-102;134
186039;1;5;0;332;445;-749;-4041;-128;-148;98
186049;1;5;0;332;478;-759;-4058;-126;-194;62
186059;1;5;0;332;507;-734;-4063;-125;-228;53
186069;1;5;0;332;528;-714;-4056;-131;-219;58
186079;1;5;0;333;512;-725;-4057;-127;-213;84
186089;1;5;0;333;489;-718;-4047;-135;-191;99
186099;1;5;0;333;461;-723;-4063;-152;-206;98
186109;1;5;0;333;442;-747;-4056;-142;-236;87
186119;1;5;0;333;458;-727;-4072;-132;-240;78
186129;1;5;0;333;455;-715;-4081;-126;-227;64
186139;1;5;0;333;469;-731;-4075;-111;-235;66
186149;1;5;0;333;476;-739;-4081;-115;-229;62
186159;1;5;0;333;478;-726;-4069;-124;-221;68
186169;1;5;0;333;469;-722;-4079;-124;-205;86
186179;1;5;0;333;438;-732;-4082;-116;-185;99
186189;1;5;0;333;420;-760;-4057;-123;-187;91
186199;1;5;0;333;428;-744;-4032;-111;-196;66
186209;1;5;0;333;418;-717;-3995;-98;-203;40
186219;1;5;0;333;474;-697;-4054;-92;-271;64
186229;1;5;0;333;514;-705;-4104;-103;-234;85
186239;1;5;0;333;487;-720;-4112;-96;-188;108
186249;1;5;0;333;412;-738;-4097;-93;-162;128
186259;1;5;0;333;402;-748;-4086;-96;-168;107
186269;1;5;0;333;435;-737;-4088;-92;-193;90
186279;1;5;0;333;440;-717;-4094;-89;-172;94
186289;1;5;0;333;456;-748;-4100;-72;-142;102
186299;1;5;0;333;445;-748;-4080;-74;-115;97
186309;1;5;0;333;452;-761;-4071;-94;-101;84
186319;1;5;0;333;431;-761;-4054;-98;-102;70
186329;1;5;0;333;438;-758;-4040;-113;-100;67
186339;1;5;0;333;442;-760;-4019;-117;-120;59
186349;1;5;0;333;441;-747;-4044;-119;-138;65
186359;1;5;0;333;429;-754;-4046;-122;-141;46
186369;1;5;0;333;443;-733;-4056;-122;-157;36
186379;1;5;0;333;441;-746;-4041;-122;-162;30
186389;1;5;0;333;445;-761;-4069;-132;-158;23
186399;1;5;0;333;419;-769;-4054;-131;-154;1
186409;1;5;0;333;421;-754;-4036;-133;-154;-13
186419;1;5;0;333;415;-749;-4022;-134;-155;-27
186429;1;5;0;333;439;-757;-4019;-139;-141;-34
186439;1;5;0;333;437;-753;-4010;-149;-127;-61
186449;1;5;0;333;423;-766;-4021;-164;-106;-75
186459;1;5;0;333;421;-743;-4033;-176;-89;-91
186469;1;5;0;333;412;-734;-4032;-174;-71;-109
186479;1;5;0;333;422;-735;-4067;-177;-48;-128
186489;1;5;0;333;428;-714;-4065;-176;-21;-140
186499;1;5;0;333;442;-706;-4095;-169;-8;-122
186509;1;5;0;333;462;-709;-4094;-171;14;-100
186519;1;5;0;333;450;-724;-4102;-166;19;-63
186529;1;5;0;333;436;-743;-4089;-174;20;-28
186539;1;5;0;333;443;-753;-4072;-169;23;-21
186549;1;5;0;333;438;-750;-4082;-172;43;-37
186559;1;5;0;333;447;-765;-4084;-185;32;-40
186569;1;5;0;333;468;-765;-4079;-186;20;-68
186579;1;5;0;334;463;-753;-4075;-198;25;-84
186589;1;5;0;334;453;-751;-4098;-198;22;-99
186599;1;5;0;334;452;-740;-4065;-200;24;-98
186609;1;5;0;334;447;-741;-4059;-189;13;-109
186619;1;5;0;334;437;-735;-4037;-188;3;-111
186629;1;5;0;334;447;-734;-4031;-187;-22;-109
186639;1;5;0;334;439;-741;-4047;-172;-11;-113
186649;1;5;0;334;430;-724;-4067;-176;-21;-98
186659;1;5;0;334;452;-761;-4120;-204;-46;-101
186669;1;5;0;334;498;-787;-4129;-216;-6;-141
186679;1;5;0;334;459;-735;-4113;-207;18;-149
186689;1;5;0;334;463;-769;-4066;-204;-14;-173
186699;1;5;0;334;445;-779;-4014;-189;-42;-202
186709;1;5;0;334;443;-733;-3975;-183;-80;-212
186719;1;5;0;334;451;-713;-4011;-178;-120;-187
186729;1;5;0;334;475;-699;-4066;-191;-115;-160
186739;1;5;0;334;487;-697;-4119;-187;-94;-132
186749;1;5;0;334;474;-702;-4121;-179;-83;-117
186759;1;5;0;334;472;-704;-4067;-153;-60;-99
186769;1;5;0;334;475;-707;-4063;-148;-60;-75
186779;1;5;0;334;451;-716;-4067;-143;-49;-81
186789;1;5;0;334;465;-715;-4064;-160;-16;-72
186799;1;5;0;334;475;-719;-4088;-153;-16;-51
186809;1;5;0;334;463;-727;-4095;-144;-10;-57
186819;1;5;0;334;473;-731;-4084;-131;-30;-59
186829;1;5;0;334;486;-733;-4068;-118;-61;-56
186839;1;5;0;334;490;-740;-4052;-116;-73;-53
186849;1;5;0;334;496;-736;-4088;-118;-100;-41
186859;1;5;0;334;494;-754;-4089;-120;-111;-22
186869;1;5;0;334;457;-767;-4075;-157;-100;-21
186879;1;5;0;334;457;-759;-4084;-166;-93;-54
186889;1;5;0;334;433;-768;-4039;-167;-97;-90
186899;1;5;0;334;447;-747;-4047;-177;-112;-114
186909;1;5;0;334;475;-735;-4043;-167;-119;-137
186919;1;5;0;334;472;-715;-4032;-165;-116;-124
186929;1;5;0;334;457;-706;-4057;-154;-127;-103
186939;1;5;0;334;443;-722;-4057;-143;-111;-87
186949;1;5;0;334;428;-737;-4071;-159;-81;-92
186959;1;5;0;334;420;-742;-4081;-164;-80;-107
186969;1;5;0;334;460;-751;-4111;-183;-72;-141
186979;1;5;0;334;482;-776;-4078;-181;-39;-175
186989;1;5;0;334;454;-711;-4057;-156;-50;-175
186999;1;5;0;334;476;-703;-4069;-160;-72;-167
187009;1;5;0;334;498;-714;-4071;-149;-80;-146
187019;1;5;0;334;506;-719;-4058;-140;-63;-118
187029;1;5;0;334;478;-717;-4034;-146;-62;-93
187039;1;5;0;334;459;-751;-4032;-145;-95;-94
187049;1;5;0;334;463;-728;-4030;-159;-104;-110
187059;1;5;0;334;475;-727;-4040;-171;-107;-104
187069;1;5;0;334;472;-737;-4083;-174;-88;-116
187079;1;5;0;335;451;-721;-4078;-174;-67;-133
187089;1;5;0;335;457;-701;-4084;-173;-64;-141
187099;1;5;0;335;464;-712;-4069;-158;-68;-145
187109;1;5;0;335;466;-728;-4075;-145;-68;-141
187119;1;5;0;335;458;-731;-4078;-143;-49;-128
187129;1;5;0;335;463;-725;-4074;-150;-35;-126
187139;1;5;0;335;458;-732;-4058;-144;-48;-130
187149;1;5;0;335;466;-728;-4077;-135;-44;-127
187159;1;5;0;335;487;-723;-4065;-139;-49;-120
187169;1;5;0;335;485;-725;-4073;-138;-35;-129
187179;1;5;0;335;492;-726;-4065;-138;-29;-138
187189;1;5;0;335;487;-737;-4051;-139;-72;-136
187199;1;5;0;335;489;-739;-4060;-136;-94;-138
187209;1;5;0;335;461;-745;-4073;-135;-110;-139
187219;1;5;0;335;480;-745;-4038;-150;-116;-143
187229;1;5;0;335;458;-739;-4063;-156;-115;-145
187239;1;5;0;335;476;-725;-4059;-168;-110;-144
187249;1;5;0;335;493;-727;-4074;-163;-108;-137
187259;1;5;0;335;483;-719;-4077;-161;-111;-134
187269;1;5;0;335;473;-708;-4084;-141;-139;-131
187279;1;5;0;335;489;-715;-4066;-134;-156;-110
187289;1;5;0;335;476;-727;-4081;-118;-144;-96
187299;1;5;0;335;486;-728;-4091;-119;-142;-100
187309;1;5;0;335;482;-721;-4078;-118;-144;-109
187319;1;5;0;335;501;-721;-4049;-112;-122;-117
187329;1;5;0;335;501;-700;-4068;-112;-124;-113
187339;1;5;0;335;502;-696;-4073;-116;-135;-92
187349;1;5;0;335;510;-710;-4036;-117;-120;-76
187359;1;5;0;335;482;-722;-4046;-113;-115;-69
187369;1;5;0;335;468;-736;-4065;-117;-135;-60
187379;1;5;0;335;460;-755;-4057;-129;-151;-67
187389;1;5;0;335;452;-762;-4069;-130;-148;-100
187399;1;5;0;335;449;-764;-4076;-141;-134;-127
187409;1;5;0;335;424;-747;-4051;-138;-119;-145
187419;1;5;0;335;435;-743;-4055;-147;-111;-169
187429;1;5;0;335;451;-740;-4070;-151;-122;-167
187439;1;5;0;335;460;-725;-4074;-133;-112;-170
187449;1;5;0;335;458;-726;-4064;-119;-87;-169
187459;1;5;0;335;400;-737;-4056;-123;-61;-172
187469;1;5;0;335;435;-729;-4049;-125;-88;-172
187479;1;5;0;335;518;-748;-4092;-139;-107;-183
187489;1;5;0;335;501;-721;-4080;-125;-75;-184
187499;1;5;0;335;485;-735;-4086;-132;-50;-200
187509;1;5;0;335;491;-757;-4079;-139;-47;-202
187519;1;5;0;335;477;-739;-4035;-125;-42;-200
187529;1;5;0;335;465;-737;-4026;-139;-63;-218
187539;1;5;0;335;469;-724;-4027;-144;-112;-214
187549;1;5;0;335;497;-726;-4032;-137;-150;-204
187559;1;5;0;335;530;-706;-4053;-136;-153;-186
187569;1;5;0;335;522;-698;-4083;-137;-127;-148
187579;1;5;0;336;500;-711;-4072;-136;-106;-128
187589;1;5;0;336;489;-712;-4060;-118;-89;-105
187599;1;5;0;336;450;-735;-4076;-105;-70;-125
187609;1;5;0;336;464;-755;-4084;-90;-73;-153
187619;1;5;0;336;451;-737;-4081;-76;-81;-184
187629;1;5;0;336;434;-721;-4082;-89;-82;-183
187639;1;5;0;336;490;-707;-4076;-92;-59;-154
187649;1;5;0;336;496;-730;-4047;-103;-86;-122
187659;1;5;0;336;509;-752;-4063;-86;-111;-117
187669;1;5;0;336;501;-742;-4092;-90;-116;-133
187679;1;5;0;336;495;-746;-4089;-101;-112;-133
187689;1;5;0;336;469;-774;-4067;-120;-92;-142
187699;1;5;0;336;472;-771;-4047;-115;-89;-152
187709;1;5;0;336;443;-761;-4014;-144;-77;-171
187719;1;5;0;336;443;-742;-4039;-160;-84;-201
187729;1;5;0;336;486;-727;-4058;-170;-108;-209
187739;1;5;0;336;505;-710;-4104;-172;-102;-193
187749;1;5;0;336;530;-706;-4142;-171;-86;-165
187759;1;5;0;336;524;-706;-4117;-174;-60;-130
187769;1;5;0;336;508;-722;-4099;-174;-50;-112
187779;1;5;0;336;504;-734;-4057;-172;-58;-95
187789;1;5;0;336;487;-720;-4068;-178;-68;-85
187799;1;5;0;336;501;-746;-4087;-172;-75;-95
187809;1;5;0;336;501;-716;-4078;-169;-59;-92
187819;1;5;0;336;494;-712;-4058;-175;-64;-89
187829;1;5;0;336;496;-735;-4059;-171;-85;-84
187839;1;5;0;336;499;-728;-4064;-164;-102;-84
187849;1;5;0;336;491;-721;-4073;-154;-91;-81
187859;1;5;0;336;481;-730;-4069;-164;-100;-68
187869;1;5;0;336;489;-724;-4067;-170;-121;-41
187879;1;5;0;336;514;-740;-4107;-179;-123;-41
187889;1;5;0;336;516;-716;-4088;-173;-88;-40
187899;1;5;0;336;501;-714;-4069;-173;-65;-28
187909;1;5;0;336;498;-696;-4056;-156;-65;-5
187919;1;5;0;336;495;-702;-4069;-156;-82;38
187929;1;5;0;336;524;-709;-4046;-154;-70;56
187939;1;5;0;336;514;-738;-4064;-133;-99;80
187949;1;5;0;336;506;-744;-4068;-143;-122;90
187959;1;5;0;336;497;-732;-4074;-146;-117;107
187969;1;5;0;336;478;-753;-4079;-156;-117;108
187979;1;5;0;336;470;-747;-4066;-161;-124;91
187989;1;5;0;336;488;-745;-4061;-160;-131;80
187999;1;5;0;336;487;-740;-4071;-177;-145;70
188009;1;5;0;336;514;-719;-4054;-168;-159;71
188019;1;5;0;336;496;-724;-4063;-148;-150;87
188029;1;5;0;336;468;-737;-4067;-153;-161;109
188039;1;5;0;336;477;-721;-4083;-160;-154;117
188049;1;5;0;336;440;-738;-4076;-155;-145;117
188059;1;5;0;336;446;-727;-4088;-158;-144;116
188069;1;5;0;336;462;-730;-4093;-157;-121;110
188079;1;5;0;337;464;-760;-4077;-155;-107;88
188089;1;5;0;337;458;-746;-4080;-148;-106;80
188099;1;5;0;337;463;-732;-4032;-157;-108;69
188109;1;5;0;337;437;-732;-4039;-158;-140;66
188119;1;5;0;337;465;-737;-4043;-140;-160;67
188129;1;5;0;337;477;-745;-4077;-133;-141;75
188139;1;5;0;337;457;-738;-4084;-142;-133;66
188149;1;5;0;337;458;-732;-4084;-125;-127;59
188159;1;5;0;337;471;-736;-4085;-141;-137;70
188169;1;5;0;337;463;-724;-4094;-134;-138;72
188179;1;5;0;337;481;-731;-4072;-121;-146;62
188189;1;5;0;337;478;-724;-4084;-132;-149;65
188199;1;5;0;337;492;-727;-4069;-126;-148;80
188209;1;5;0;337;486;-723;-4070;-118;-161;97
188219;1;5;0;337;478;-730;-4067;-112;-163;110
188229;1;5;0;337;464;-726;-4042;-89;-157;115
188239;1;5;0;337;415;-738;-4015;-71;-205;135
188249;1;5;0;337;408;-727;-4043;-94;-233;132
188259;1;5;0;337;511;-755;-4066;-99;-253;151
188269;1;5;0;337;476;-759;-4094;-84;-189;132
188279;1;5;0;337;439;-781;-4075;-98;-179;93
188289;1;5;0;337;443;-765;-4056;-118;-200;68
188299;1;5;0;337;457;-758;-4020;-104;-213;30
188309;1;5;0;337;444;-727;-4025;-103;-237;14
188319;1;5;0;337;440;-720;-4039;-84;-313;47
188329;1;5;0;337;414;-722;-4058;-93;-252;84
188339;1;5;0;337;440;-747;-4090;-89;-247;93
188349;1;5;0;337;435;-728;-4098;-78;-249;94
188359;1;5;0;337;423;-734;-4074;-75;-223;107
188369;1;5;0;337;439;-736;-4059;-76;-185;89
188379;1;5;0;337;448;-735;-4048;-74;-190;97
188389;1;5;0;337;431;-738;-4036;-88;-150;100
188399;1;5;0;337;423;-755;-4049;-83;-118;108
188409;1;5;0;337;401;-777;-4019;-95;-107;96
188419;1;5;0;337;400;-784;-4032;-102;-123;62
188429;1;5;0;337;409;-766;-4036;-116;-143;34
188439;1;5;0;337;426;-762;-4060;-117;-154;4
188449;1;5;0;337;451;-750;-4089;-125;-137;-22
188459;1;5;0;337;449;-755;-4088;-125;-98;-18
188469;1;5;0;337;388;-778;-4061;-144;-45;-40
188479;1;5;0;337;360;-797;-4040;-142;-31;-78
188489;1;5;0;337;370;-792;-4034;-159;-5;-126
188499;1;5;0;337;381;-786;-4005;-165;16;-164
188509;1;5;0;337;404;-715;-4018;-202;30;-180
188519;1;5;0;337;457;-728;-4045;-208;49;-191
188529;1;5;0;337;493;-697;-4055;-206;60;-150
188539;1;5;0;337;489;-724;-4083;-213;67;-106
188549;1;5;0;337;449;-758;-4095;-231;72;-92
188559;1;5;0;337;423;-776;-4105;-241;73;-100
188569;1;5;0;337;429;-793;-4118;-236;86;-149
188579;1;5;0;338;404;-767;-4054;-224;51;-176
188589;1;5;0;338;404;-760;-4074;-224;-2;-200
188599;1;5;0;338;481;-733;-4100;-223;-24;-229
188609;1;5;0;338;500;-701;-4021;-224;-11;-234
188619;1;5;0;338;533;-745;-4085;-178;-114;41
188629;1;5;0;338;354;-778;-3993;-152;-395;-29
188639;1;5;0;338;528;-738;-4082;-122;-316;-102
188649;1;5;0;338;582;-693;-4021;-129;-134;-152
188659;1;5;0;338;534;-745;-4141;-187;1;-152
188669;1;5;0;338;480;-699;-4073;-156;39;-98
188679;1;5;0;338;412;-725;-4039;-177;-21;-56
188689;1;5;0;338;455;-756;-4035;-151;-56;-40
188699;1;5;0;338;445;-764;-4062;-163;-71;-76
188709;1;5;0;338;459;-767;-4078;-176;-51;-147
188719;1;5;0;338;403;-683;-4031;-196;-119;-148
188729;1;5;0;338;352;-734;-4055;-187;-266;-52
188739;1;5;0;338;478;-762;-4041;-156;-179;-137
188749;1;5;0;338;458;-724;-4057;-156;-140;-99
188759;1;5;0;338;455;-758;-4085;-154;-116;-103
188769;1;5;0;338;425;-767;-4080;-168;-84;-96
188779;1;5;0;338;332;-736;-3982;-180;-128;-127
188789;1;5;0;338;285;-763;-4064;-178;-307;-22
188799;1;5;0;338;437;-771;-4057;-146;-377;-99
188809;1;5;0;338;562;-703;-4077;-125;-240;-121
188819;1;5;0;338;597;-678;-4122;-164;-67;-121
188829;1;5;0;338;522;-718;-4137;-182;2;-64
188839;1;5;0;338;412;-742;-4109;-180;-7;-40
188849;1;5;0;338;407;-757;-4067;-172;-60;-63
188859;1;5;0;338;430;-756;-4061;-158;-95;-86
188869;1;5;0;338;453;-753;-4055;-142;-92;-121
188879;1;5;0;338;444;-717;-4050;-134;-98;-107
188889;1;5;0;338;422;-726;-4044;-131;-103;-86
188899;1;5;0;338;444;-743;-4064;-119;-104;-73
188909;1;5;0;338;444;-767;-4085;-148;-83;-84
188919;1;5;0;338;431;-765;-4052;-160;-62;-119
188929;1;5;0;338;434;-728;-4036;-171;-68;-134
188939;1;5;0;338;447;-717;-4046;-159;-91;-119
188949;1;5;0;338;445;-721;-4066;-156;-93;-112
188959;1;5;0;338;448;-732;-4097;-140;-92;-97
188969;1;5;0;338;447;-740;-4069;-145;-81;-94
188979;1;5;0;338;403;-745;-4078;-147;-59;-116
188989;1;5;0;338;408;-760;-4061;-136;-67;-146
188999;1;5;0;338;411;-740;-4041;-127;-60;-173
189009;1;5;0;338;431;-725;-4067;-150;-71;-171
189019;1;5;0;338;507;-727;-4114;-179;-75;-167
189029;1;5;0;338;498;-740;-4100;-168;-33;-153
189039;1;5;0;338;422;-726;-4078;-167;-6;-152
189049;1;5;0;338;430;-755;-4065;-171;-32;-156
189059;1;5;0;338;424;-771;-4045;-159;-41;-173
189069;1;5;0;338;415;-753;-4016;-128;-70;-193
189079;1;5;0;339;435;-727;-4020;-116;-99;-200
189089;1;5;0;339;445;-707;-4031;-135;-129;-181
189099;1;5;0;339;503;-724;-4076;-156;-99;-179
189109;1;5;0;339;531;-714;-4084;-158;-46;-154
189119;1;5;0;339;487;-706;-4053;-162;-9;-123
189129;1;5;0;339;456;-705;-4050;-148;-15;-94
189139;1;5;0;339;459;-713;-4057;-145;-17;-75
189149;1;5;0;339;450;-713;-4081;-141;-16;-79
189159;1;5;0;339;453;-735;-4116;-125;-6;-79
189169;1;5;0;339;441;-734;-4106;-115;10;-77
189179;1;5;0;339;453;-748;-4102;-116;-20;-77
189189;1;5;0;339;484;-750;-4084;-108;-51;-100
189199;1;5;0;339;494;-739;-4064;-98;-59;-114
189209;1;5;0;339;473;-741;-4055;-104;-76;-103
189219;1;5;0;339;462;-755;-4050;-117;-74;-97
189229;1;5;0;339;435;-754;-4079;-124;-63;-121
189239;1;5;0;339;453;-758;-4046;-135;-60;-130
189249;1;5;0;339;456;-744;-4064;-145;-63;-150
189259;1;5;0;339;471;-729;-4060;-144;-68;-148
189269;1;5;0;339;485;-731;-4055;-146;-64;-154
189279;1;5;0;339;470;-736;-4054;-140;-95;-145
189289;1;5;0;339;461;-726;-4041;-134;-96;-141
189299;1;5;0;339;448;-731;-4059;-134;-104;-136
189309;1;5;0;339;452;-733;-4058;-134;-106;-139
189319;1;5;0;339;451;-740;-4061;-134;-100;-139
189329;1;5;0;339;431;-740;-4078;-151;-85;-147
189339;1;5;0;339;464;-753;-4089;-154;-79;-169
189349;1;5;0;339;468;-747;-4052;-95;-118;-168
189359;1;5;0;339;435;-727;-4020;-96;-78;-177
189369;1;5;0;339;412;-730;-4021;-104;-100;-175
189379;1;5;0;339;483;-754;-4058;-128;-118;-182
189389;1;5;0;339;507;-741;-4069;-128;-93;-197
189399;1;5;0;339;489;-745;-4071;-119;-83;-187
189409;1;5;0;339;468;-724;-4063;-114;-88;-164
189419;1;5;0;339;463;-746;-4068;-95;-91;-155
189429;1;5;0;339;432;-757;-4054;-98;-68;-166
189439;1;5;0;339;430;-759;-4052;-78;-89;-199
189449;1;5;0;339;433;-748;-4053;-85;-70;-220
189459;1;5;0;339;466;-740;-4049;-78;-58;-252
189469;1;5;0;339;454;-748;-4042;-74;-96;-292
189479;1;5;0;339;430;-740;-4086;-75;-133;-265
189489;1;5;0;339;502;-735;-4099;-76;-94;-262
189499;1;5;0;339;511;-715;-4104;-91;-56;-194
189509;1;5;0;339;509;-754;-4115;-111;-49;-191
189519;1;5;0;339;526;-747;-4103;-111;-21;-198
189529;1;5;0;339;479;-746;-4118;-118;-12;-186
189539;1;5;0;339;464;-744;-4077;-123;-37;-182
189549;1;5;0;339;475;-744;-4050;-121;-58;-170
189559;1;5;0;339;473;-747;-4052;-114;-26;-138
189569;1;5;0;339;464;-745;-4061;-131;-32;-134
189579;1;5;0;340;477;-756;-4074;-141;-40;-134
189589;1;5;0;340;501;-760;-4082;-143;-40;-149
189599;1;5;0;340;507;-749;-4100;-159;-32;-147
189609;1;5;0;340;492;-724;-4079;-169;-36;-140
189619;1;5;0;340;495;-744;-4061;-176;-36;-131
189629;1;5;0;340;496;-738;-4068;-172;-58;-124
189639;1;5;0;340;530;-736;-4079;-156;-78;-129
189649;1;5;0;340;517;-728;-4070;-173;-76;-122
189659;1;5;0;340;494;-736;-4059;-164;-81;-104
189669;1;5;0;340;497;-742;-4058;-186;-71;-93
189679;1;5;0;340;450;-752;-4062;-170;-94;-51
189689;1;5;0;340;443;-752;-4063;-180;-95;-70
189699;1;5;0;340;463;-758;-4058;-168;-100;-94
189709;1;5;0;340;476;-738;-4069;-172;-80;-103
189719;1;5;0;340;477;-735;-4051;-171;-83;-109
189729;1;5;0;340;473;-713;-4047;-174;-73;-96
189739;1;5;0;340;462;-720;-4052;-177;-67;-72
189749;1;5;0;340;482;-731;-4061;-173;-67;-53
189759;1;5;0;340;473;-740;-4065;-176;-70;-35
189769;1;5;0;340;476;-722;-4062;-161;-76;-28
189779;1;5;0;340;494;-726;-4084;-149;-85;-23
189789;1;5;0;340;524;-730;-4115;-154;-96;-24
189799;1;5;0;340;532;-747;-4102;-165;-77;-37
189809;1;5;0;340;531;-733;-4065;-156;-85;-16
189819;1;5;0;340;497;-727;-4053;-161;-81;13
189829;1;5;0;340;487;-725;-4062;-170;-95;39
189839;1;5;0;340;491;-729;-4079;-158;-113;61
189849;1;5;0;340;514;-746;-4065;-151;-94;53
189859;1;5;0;340;515;-725;-4062;-133;-69;52
189869;1;5;0;340;483;-704;-4065;-124;-109;80
189879;1;5;0;340;504;-740;-4094;-163;-156;107
189889;1;5;0;340;534;-783;-4108;-160;-130;113
189899;1;5;0;340;483;-780;-4082;-146;-94;102
189909;1;5;0;340;438;-773;-4082;-161;-117;86
189919;1;5;0;340;468;-774;-4070;-173;-132;72
189929;1;5;0;340;468;-754;-4014;-167;-161;48
189939;1;5;0;340;461;-714;-4006;-155;-179;45
189949;1;5;0;340;479;-697;-4026;-157;-202;57
189959;1;5;0;340;515;-713;-4093;-163;-217;103
189969;1;5;0;340;518;-717;-4110;-156;-156;122
189979;1;5;0;340;482;-738;-4093;-148;-102;129
189989;1;5;0;340;443;-728;-4091;-152;-79;133
189999;1;5;0;340;445;-744;-4088;-149;-73;122
190009;1;5;0;340;457;-749;-4084;-139;-75;110
190019;1;5;0;340;451;-757;-4070;-128;-57;92
190029;1;5;0;340;456;-756;-4053;-123;-54;84
190039;1;5;0;340;457;-760;-4039;-122;-73;79
190049;1;5;0;340;464;-765;-4053;-129;-90;75
190059;1;5;0;340;472;-764;-4057;-117;-108;68
190069;1;5;0;340;462;-772;-4064;-128;-113;49
190079;1;5;0;341;473;-777;-4056;-127;-135;47
190089;1;5;0;341;467;-759;-4062;-134;-136;46
190099;1;5;0;341;472;-743;-4063;-132;-153;52
190109;1;5;0;341;484;-741;-4069;-134;-176;55
190119;1;5;0;341;493;-734;-4066;-133;-198;69
190129;1;5;0;341;494;-731;-4043;-123;-210;83
190139;1;5;0;341;471;-725;-4043;-102;-206;103
190149;1;5;0;341;464;-722;-4050;-102;-235;130
190159;1;5;0;341;460;-731;-4066;-88;-253;147
190169;1;5;0;341;487;-736;-4072;-87;-242;132
190179;1;5;0;341;487;-748;-4063;-71;-220;122
190189;1;5;0;341;478;-732;-4058;-77;-226;130
190199;1;5;0;341;482;-746;-4071;-86;-235;153
190209;1;5;0;341;442;-761;-4043;-84;-238;158
190219;1;5;0;341;425;-743;-4033;-65;-286;152
190229;1;5;0;341;444;-757;-4050;-63;-341;143
190239;1;5;0;341;451;-772;-4069;-57;-351;155
190249;1;5;0;341;446;-752;-4095;-49;-329;162
190259;1;5;0;341;408;-767;-4088;-33;-324;165
190269;1;5;0;341;376;-782;-4064;-17;-340;157
190279;1;5;0;341;402;-773;-4063;-32;-323;118
190289;1;5;0;341;428;-774;-4079;-42;-309;116
190299;1;5;0;341;423;-785;-4090;-53;-242;85
190309;1;5;0;341;415;-772;-4074;-61;-212;76
190319;1;5;0;341;421;-775;-4041;-77;-217;69
190329;1;5;0;341;388;-774;-4049;-85;-238;80
190339;1;5;0;341;397;-778;-4050;-79;-264;94
190349;1;5;0;341;372;-785;-4055;-68;-277;91
190359;1;5;0;341;404;-774;-4051;-56;-304;93
190369;1;5;0;341;433;-769;-4073;-51;-314;72
190379;1;5;0;341;416;-768;-4061;-58;-251;50
190389;1;5;0;341;416;-780;-4060;-72;-207;34
190399;1;5;0;341;406;-781;-4040;-86;-181;21
190409;1;5;0;341;382;-781;-4015;-111;-182;10
190419;1;5;0;341;378;-767;-4020;-109;-187;0
190429;1;5;0;341;407;-763;-4028;-110;-198;0
190439;1;5;0;341;421;-773;-4053;-115;-189;1
190449;1;5;0;341;433;-752;-4078;-115;-157;2
190459;1;5;0;341;412;-782;-4076;-122;-109;-6
190469;1;5;0;341;376;-788;-4046;-132;-99;-21
190479;1;5;0;341;370;-782;-4034;-129;-99;-38
190489;1;5;0;341;359;-777;-4046;-148;-90;-49
190499;1;5;0;341;364;-777;-4030;-154;-76;-80
190509;1;5;0;341;387;-758;-4039;-155;-40;-101
190519;1;5;0;341;394;-773;-4044;-155;3;-104
190529;1;5;0;341;405;-783;-4051;-172;44;-113
190539;1;5;0;341;396;-760;-4032;-194;90;-134
190549;1;5;0;341;401;-744;-4042;-211;109;-129
190559;1;5;0;341;413;-746;-4091;-217;109;-110
190569;1;5;0;341;422;-761;-4081;-220;130;-88
190579;1;5;0;342;407;-771;-4089;-218;152;-79
190589;1;5;0;342;397;-787;-4085;-223;163;-88
190599;1;5;0;342;393;-791;-4081;-230;159;-100
190609;1;5;0;342;395;-788;-4060;-228;151;-117
190619;1;5;0;342;426;-777;-4039;-211;146;-138
190629;1;5;0;342;399;-756;-4030;-208;126;-136
190639;1;5;0;342;456;-756;-4072;-249;68;-128
190649;1;5;0;342;532;-776;-4095;-270;108;-125
190659;1;5;0;342;518;-759;-4108;-275;179;-119
190669;1;5;0;342;460;-784;-4088;-289;160;-127
190679;1;5;0;342;439;-793;-4072;-290;116;-148
190689;1;5;0;342;420;-771;-4054;-262;66;-179
190699;1;5;0;342;418;-736;-4053;-221;4;-170
190709;1;5;0;342;433;-736;-4070;-198;-15;-141
190719;1;5;0;342;428;-750;-4082;-185;-17;-130
190729;1;5;0;342;438;-769;-4083;-173;6;-124
190739;1;5;0;342;439;-772;-4064;-184;6;-137
190749;1;5;0;342;448;-758;-4050;-179;-4;-138
190759;1;5;0;342;443;-733;-4060;-189;-2;-134
190769;1;5;0;342;485;-737;-4083;-200;-13;-119
190779;1;5;0;342;481;-763;-4090;-201;22;-110
190789;1;5;0;342;471;-772;-4093;-212;39;-117
190799;1;5;0;342;425;-790;-4072;-217;38;-136
190809;1;5;0;342;426;-781;-4055;-203;10;-168
190819;1;5;0;342;449;-775;-4053;-204;-14;-185
190829;1;5;0;342;450;-752;-4053;-199;-32;-188
190839;1;5;0;342;460;-738;-4047;-190;-51;-174
190849;1;5;0;342;475;-737;-4079;-198;-38;-159
190859;1;5;0;342;449;-750;-4084;-187;-22;-151
190869;1;5;0;342;441;-766;-4052;-182;-12;-162
190879;1;5;0;342;425;-743;-4059;-184;0;-184
190889;1;5;0;342;445;-739;-4023;-173;-10;-193
190899;1;5;0;342;462;-722;-4011;-167;-17;-183
190909;1;5;0;342;486;-722;-4037;-154;-22;-159
190919;1;5;0;342;481;-725;-4053;-166;-12;-125
190929;1;5;0;342;484;-762;-4070;-184;-7;-124
190939;1;5;0;342;511;-772;-4103;-175;-12;-142
190949;1;5;0;342;492;-758;-4075;-187;11;-175
190959;1;5;0;342;445;-739;-4025;-164;-9;-185
190969;1;5;0;342;427;-746;-4033;-163;-62;-192
190979;1;5;0;342;489;-734;-4063;-177;-110;-182
190989;1;5;0;342;522;-738;-4069;-167;-101;-193
190999;1;5;0;342;501;-721;-4082;-145;-63;-180
191009;1;5;0;342;467;-736;-4058;-149;-75;-159
191019;1;5;0;342;491;-746;-4055;-160;-86;-141
191029;1;5;0;342;486;-744;-4051;-158;-86;-140
191039;1;5;0;342;473;-739;-4069;-147;-87;-139
191049;1;5;0;342;479;-715;-4072;-142;-79;-139
191059;1;5;0;342;469;-741;-4072;-143;-71;-138
191069;1;5;0;342;476;-737;-4081;-138;-49;-143
191079;1;5;0;343;480;-751;-4041;-127;-48;-137
191089;1;5;0;343;471;-751;-4047;-131;-54;-129
191099;1;5;0;343;476;-748;-4045;-133;-54;-130
191109;1;5;0;343;471;-745;-4057;-135;-64;-133
191119;1;5;0;343;484;-736;-4066;-132;-71;-132
191129;1;5;0;343;500;-744;-4090;-133;-65;-125
191139;1;5;0;343;510;-755;-4089;-130;-49;-133
191149;1;5;0;343;488;-769;-4071;-138;-33;-131
191159;1;5;0;343;498;-740;-4068;-136;-54;-138
191169;1;5;0;343;483;-747;-4062;-144;-57;-136
191179;1;5;0;343;489;-746;-4071;-147;-81;-139
191189;1;5;0;343;488;-752;-4070;-140;-88;-136
191199;1;5;0;343;475;-776;-4063;-133;-85;-147
191209;1;5;0;343;470;-764;-4042;-139;-93;-163
191219;1;5;0;343;457;-751;-4045;-148;-79;-187
191229;1;5;0;343;446;-726;-4057;-150;-69;-201
191239;1;5;0;343;467;-736;-4066;-149;-67;-201
191249;1;5;0;343;449;-740;-4048;-145;-57;-197
191259;1;5;0;343;464;-742;-4051;-156;-30;-198
191269;1;5;0;343;485;-734;-4077;-152;-24;-202
191279;1;5;0;343;479;-760;-4058;-144;-26;-214
191289;1;5;0;343;453;-775;-4046;-128;-16;-253
191299;1;5;0;343;458;-759;-4050;-128;-43;-286
191309;1;5;0;343;478;-727;-4042;-113;-70;-283
191319;1;5;0;343;469;-732;-4066;-112;-50;-298
191329;1;5;0;343;504;-726;-4095;-117;-43;-260
191339;1;5;0;343;514;-739;-4105;-108;-5;-243
191349;1;5;0;343;494;-730;-4083;-113;33;-226
191359;1;5;0;343;490;-755;-4074;-119;32;-238
191369;1;5;0;343;495;-743;-4062;-121;24;-234
191379;1;5;0;343;524;-742;-4052;-128;21;-239
191389;1;5;0;343;511;-740;-4067;-129;-1;-247
191399;1;5;0;343;539;-746;-4078;-131;-14;-240
191409;1;5;0;343;545;-721;-4046;-110;-4;-234
191419;1;5;0;343;508;-717;-4047;-102;-4;-165
191429;1;5;0;343;507;-724;-4046;-122;-63;-129
191439;1;5;0;343;555;-765;-4078;-137;-63;-114
191449;1;5;0;343;545;-771;-4094;-137;-28;-134
191459;1;5;0;343;513;-771;-4080;-136;-24;-180
191469;1;5;0;343;524;-757;-4039;-153;-28;-195
191479;1;5;0;343;541;-743;-4039;-153;-34;-186
191489;1;5;0;343;532;-725;-4013;-158;-61;-169
191499;1;5;0;343;500;-724;-4025;-159;-112;-171
191509;1;5;0;343;528;-749;-4061;-171;-133;-160
191519;1;5;0;343;548;-743;-4095;-177;-139;-152
191529;1;5;0;343;517;-742;-4076;-167;-160;-151
191539;1;5;0;343;534;-727;-4067;-170;-138;-138
191549;1;5;0;343;560;-709;-4084;-150;-120;-130
191559;1;5;0;343;553;-689;-4075;-161;-81;-110
191569;1;5;0;343;520;-727;-4063;-161;-50;-81
191579;1;5;0;344;495;-726;-4068;-161;-30;-66
191589;1;5;0;344;472;-748;-4064;-169;-29;-72
191599;1;5;0;344;494;-742;-4074;-164;-45;-82
191609;1;5;0;344;528;-733;-4087;-150;-58;-69
191619;1;5;0;344;536;-752;-4081;-139;-71;-55
191629;1;5;0;344;525;-744;-4075;-135;-70;-46
191639;1;5;0;344;523;-763;-4087;-152;-75;-41
191649;1;5;0;344;515;-751;-4089;-159;-86;-43
191659;1;5;0;344;536;-754;-4068;-152;-82;-51
191669;1;5;0;344;551;-740;-4070;-152;-91;-49
191679;1;5;0;344;544;-732;-4060;-165;-101;-37
191689;1;5;0;344;552;-731;-4049;-183;-106;-22
191699;1;5;0;344;550;-734;-4046;-182;-115;-14
191709;1;5;0;344;533;-741;-4058;-196;-132;-6
191719;1;5;0;344;548;-727;-4050;-179;-144;12
191729;1;5;0;344;532;-734;-4101;-187;-137;31
191739;1;5;0;344;506;-725;-4080;-182;-122;39
191749;1;5;0;344;505;-745;-4082;-182;-121;54
191759;1;5;0;344;499;-769;-4088;-181;-125;50
191769;1;5;0;344;491;-760;-4049;-179;-99;29
191779;1;5;0;344;473;-754;-4055;-189;-115;16
191789;1;5;0;344;500;-740;-4059;-178;-157;13
191799;1;5;0;344;543;-729;-4048;-174;-163;17
191809;1;5;0;344;532;-723;-4043;-167;-156;32
191819;1;5;0;344;501;-714;-4054;-167;-152;74
191829;1;5;0;344;479;-715;-4049;-173;-168;106
191839;1;5;0;344;480;-739;-4078;-172;-170;117
191849;1;5;0;344;484;-755;-4078;-165;-157;98
191859;1;5;0;344;480;-761;-4096;-176;-138;71
191869;1;5;0;344;489;-737;-4103;-171;-131;41
191879;1;5;0;344;503;-732;-4078;-160;-113;39
191889;1;5;0;344;519;-716;-4091;-160;-89;49
191899;1;5;0;344;517;-716;-4064;-158;-59;72
191909;1;5;0;344;507;-724;-4050;-144;-50;93
191919;1;5;0;344;507;-726;-4045;-135;-67;104
191929;1;5;0;344;487;-734;-4034;-125;-97;99
191939;1;5;0;344;469;-762;-4028;-123;-133;72
191949;1;5;0;344;470;-770;-4044;-115;-162;55
191959;1;5;0;344;493;-752;-4063;-128;-181;36
191969;1;5;0;344;501;-762;-4083;-137;-166;38
191979;1;5;0;344;493;-750;-4076;-147;-148;52
191989;1;5;0;344;470;-750;-4066;-157;-131;45
191999;1;5;0;344;479;-744;-4059;-147;-157;38
192009;1;5;0;344;484;-743;-4053;-149;-154;30
192019;1;5;0;344;502;-737;-4046;-149;-162;25
192029;1;5;0;344;518;-717;-4071;-136;-161;31
192039;1;5;0;344;486;-722;-4065;-130;-144;41
192049;1;5;0;344;485;-727;-4049;-123;-137;52
192059;1;5;0;344;484;-736;-4055;-113;-153;64
192069;1;5;0;344;488;-761;-4046;-115;-161;65
192079;1;5;0;345;501;-753;-4061;-104;-191;50
192089;1;5;0;345;489;-741;-4038;-100;-206;46
192099;1;5;0;345;485;-740;-4046;-114;-215;36
192109;1;5;0;345;506;-736;-4063;-99;-240;60
192119;1;5;0;345;504;-726;-4068;-102;-231;71
192129;1;5;0;345;520;-737;-4071;-115;-228;87
192139;1;5;0;345;505;-729;-4065;-114;-220;101
192149;1;5;0;345;486;-737;-4069;-106;-228;115
192159;1;5;0;345;479;-763;-4060;-105;-221;114
192169;1;5;0;345;468;-759;-4062;-106;-229;100
192179;1;5;0;345;461;-749;-4044;-100;-248;94
192189;1;5;0;345;469;-744;-4070;-103;-240;94
192199;1;5;0;345;471;-750;-4068;-93;-228;91
192209;1;5;0;345;419;-751;-4034;-70;-220;94
192219;1;5;0;345;415;-755;-4075;-95;-251;112
192229;1;5;0;345;457;-795;-4087;-112;-250;106
192239;1;5;0;345;434;-784;-4071;-113;-175;55
192249;1;5;0;345;408;-807;-4054;-126;-150;-3
192259;1;5;0;345;411;-798;-4038;-137;-164;-47
192269;1;5;0;345;436;-759;-4031;-133;-176;-90
192279;1;5;0;345;461;-725;-4012;-129;-189;-101
192289;1;5;0;345;463;-719;-4037;-121;-185;-74
192299;1;5;0;345;471;-721;-4079;-123;-156;-27
192309;1;5;0;345;477;-740;-4114;-127;-114;-7
192319;1;5;0;345;455;-750;-4068;-131;-70;-11
192329;1;5;0;345;424;-750;-4047;-136;-50;-22
192339;1;5;0;345;437;-732;-4040;-128;-63;-21
192349;1;5;0;345;467;-735;-4062;-132;-40;-38
192359;1;5;0;345;474;-743;-4070;-133;-2;-38
192369;1;5;0;345;459;-750;-4068;-135;14;-41
192379;1;5;0;345;432;-777;-4057;-140;14;-50
192389;1;5;0;345;434;-769;-4050;-150;-11;-63
192399;1;5;0;345;454;-777;-4046;-155;-38;-71
192409;1;5;0;345;473;-767;-4046;-160;-63;-86
192419;1;5;0;345;482;-745;-4057;-167;-63;-92
192429;1;5;0;345;471;-754;-4061;-173;-65;-96
192439;1;5;0;345;459;-759;-4066;-179;-63;-93
192449;1;5;0;345;448;-760;-4061;-177;-54;-85
192459;1;5;0;345;442;-753;-4081;-176;-59;-89
192469;1;5;0;345;453;-749;-4073;-169;-61;-91
192479;1;5;0;345;469;-751;-4054;-175;-59;-96
192489;1;5;0;345;476;-746;-4054;-176;-61;-102
192499;1;5;0;345;483;-733;-4052;-174;-70;-103
192509;1;5;0;345;484;-728;-4051;-185;-63;-87
192519;1;5;0;345;479;-750;-4063;-183;-54;-70
192529;1;5;0;345;480;-779;-4079;-189;-50;-77
192539;1;5;0;345;457;-773;-4059;-197;-26;-103
192549;1;5;0;345;434;-756;-4010;-183;-42;-122
192559;1;5;0;345;441;-756;-4030;-176;-91;-110
192569;1;5;0;345;495;-761;-4062;-197;-115;-112
