timestamp;subject_id;activity;label;seq;ax;ay;az;gx;gy;gz
207079;1;5;0;375;453;-729;-4079;-137;-39;-43
207089;1;5;0;375;467;-733;-4082;-133;-12;-65
207099;1;5;0;375;476;-755;-4085;-135;18;-87
207109;1;5;0;375;469;-759;-4064;-146;30;-111
207119;1;5;0;375;468;-760;-4066;-157;25;-111
207129;1;5;0;375;482;-753;-4056;-153;12;-117
207139;1;5;0;375;482;-759;-4038;-157;-2;-111
207149;1;5;0;375;478;-750;-4041;-157;-25;-107
207159;1;5;0;375;486;-749;-4032;-148;-58;-95
207169;1;5;0;375;475;-752;-4052;-143;-84;-86
207179;1;5;0;375;486;-761;-4056;-155;-79;-88
207189;1;5;0;375;497;-745;-4066;-170;-70;-100
207199;1;5;0;375;511;-731;-4060;-165;-64;-113
207209;1;5;0;375;509;-709;-4056;-169;-61;-105
207219;1;5;0;375;514;-707;-4033;-160;-85;-83
207229;1;5;0;375;493;-716;-4038;-161;-99;-69
207239;1;5;0;375;497;-729;-4042;-144;-125;-55
207249;1;5;0;375;486;-748;-4068;-152;-135;-47
207259;1;5;0;375;487;-757;-4081;-164;-151;-68
207269;1;5;0;375;520;-764;-4081;-170;-124;-106
207279;1;5;0;375;489;-742;-4041;-158;-92;-125
207289;1;5;0;375;460;-717;-4025;-147;-119;-113
207299;1;5;0;375;486;-722;-4029;-151;-162;-89
207309;1;5;0;375;505;-728;-4056;-150;-158;-77
207319;1;5;0;375;489;-731;-4050;-138;-128;-70
207329;1;5;0;375;444;-743;-4060;-130;-138;-66
207339;1;5;0;375;447;-748;-4090;-128;-154;-72
207349;1;5;0;375;498;-721;-4101;-130;-129;-96
207359;1;5;0;375;504;-711;-4099;-139;-67;-85
207369;1;5;0;375;466;-716;-4092;-140;-36;-60
207379;1;5;0;375;446;-732;-4070;-132;-39;-30
207389;1;5;0;375;455;-763;-4043;-125;-35;-36
207399;1;5;0;375;428;-775;-4047;-126;-22;-53
207409;1;5;0;375;438;-773;-4045;-117;-21;-80
207419;1;5;0;375;417;-777;-4045;-124;-33;-113
207429;1;5;0;375;438;-764;-4066;-136;-37;-138
207439;1;5;0;375;482;-760;-4095;-140;-36;-159
207449;1;5;0;375;495;-737;-4099;-152;-10;-140
207459;1;5;0;375;525;-708;-4071;-145;36;-141
207469;1;5;0;375;503;-717;-4024;-139;44;-141
207479;1;5;0;375;501;-721;-4020;-136;31;-133
207489;1;5;0;375;471;-753;-4003;-128;-17;-128
207499;1;5;0;375;491;-757;-4013;-142;-57;-140
207509;1;5;0;375;512;-770;-4046;-150;-94;-164
207519;1;5;0;375;555;-742;-4075;-156;-117;-196
207529;1;5;0;375;569;-712;-4085;-155;-106;-194
207539;1;5;0;375;566;-705;-4076;-156;-92;-169
207549;1;5;0;375;551;-707;-4056;-165;-88;-119
207559;1;5;0;375;477;-734;-4031;-162;-94;-82
207569;1;5;0;375;449;-762;-4052;-158;-109;-67
207579;1;5;0;376;437;-760;-4038;-144;-136;-69
207589;1;5;0;376;419;-770;-4043;-159;-144;-110
207599;1;5;0;376;454;-763;-4083;-152;-156;-129
207609;1;5;0;376;508;-737;-4076;-167;-137;-154
207619;1;5;0;376;539;-730;-4085;-170;-107;-156
207629;1;5;0;376;555;-703;-4068;-171;-90;-130
207639;1;5;0;376;502;-709;-4054;-176;-91;-94
207649;1;5;0;376;475;-731;-4062;-170;-98;-74
207659;1;5;0;376;454;-748;-4069;-149;-114;-90
207669;1;5;0;376;494;-756;-4104;-141;-112;-129
207679;1;5;0;376;527;-715;-4118;-125;-73;-164
207689;1;5;0;376;522;-686;-4115;-128;7;-173
207699;1;5;0;376;505;-709;-4094;-115;35;-166
207709;1;5;0;376;471;-729;-4058;-104;45;-140
207719;1;5;0;376;481;-763;-4030;-104;34;-134
207729;1;5;0;376;460;-784;-4021;-111;54;-133
207739;1;5;0;376;430;-793;-4041;-106;62;-150
207749;1;5;0;376;410;-771;-4042;-121;17;-146
207759;1;5;0;376;466;-775;-4092;-146;-45;-161
207769;1;5;0;376;551;-786;-4111;-157;-37;-217
207779;1;5;0;376;552;-739;-4085;-159;11;-243
207789;1;5;0;376;538;-712;-4055;-174;19;-215
207799;1;5;0;376;545;-719;-4017;-169;3;-173
207809;1;5;0;376;478;-732;-3999;-147;-38;-149
207819;1;5;0;376;467;-729;-3974;-113;-101;-141
207829;1;5;0;376;503;-712;-4010;-100;-169;-142
207839;1;5;0;376;556;-708;-4068;-108;-179;-132
207849;1;5;0;376;611;-707;-4097;-124;-139;-152
207859;1;5;0;376;626;-703;-4098;-124;-85;-144
207869;1;5;0;376;580;-701;-4080;-125;-42;-112
207879;1;5;0;376;531;-714;-4080;-122;-48;-73
207889;1;5;0;376;510;-739;-4056;-128;-84;-49
207899;1;5;0;376;483;-773;-4069;-125;-114;-55
207909;1;5;0;376;475;-785;-4082;-139;-118;-90
207919;1;5;0;376;475;-787;-4068;-136;-124;-118
207929;1;5;0;376;468;-757;-4043;-127;-146;-126
207939;1;5;0;376;478;-733;-4025;-124;-159;-106
207949;1;5;0;376;503;-725;-4036;-129;-155;-79
207959;1;5;0;376;501;-733;-4053;-146;-142;-80
207969;1;5;0;376;509;-749;-4074;-144;-128;-84
207979;1;5;0;376;524;-726;-4087;-134;-109;-67
207989;1;5;0;376;514;-735;-4078;-133;-113;-66
207999;1;5;0;376;547;-730;-4092;-141;-118;-91
208009;1;5;0;376;573;-729;-4081;-132;-97;-111
208019;1;5;0;376;586;-710;-4090;-149;-56;-126
208029;1;5;0;376;566;-716;-4069;-165;-27;-126
208039;1;5;0;376;529;-728;-4035;-157;-29;-107
208049;1;5;0;376;491;-734;-4034;-154;-57;-89
208059;1;5;0;376;459;-756;-4072;-156;-76;-77
208069;1;5;0;376;457;-778;-4071;-161;-77;-81
208079;1;5;0;377;461;-796;-4072;-178;-84;-87
208089;1;5;0;377;475;-783;-4087;-181;-87;-116
208099;1;5;0;377;498;-779;-4047;-181;-74;-129
208109;1;5;0;377;501;-742;-4065;-188;-80;-114
208119;1;5;0;377;504;-745;-4064;-205;-108;-81
208129;1;5;0;377;535;-729;-4057;-207;-100;-86
208139;1;5;0;377;531;-732;-4041;-198;-74;-100
208149;1;5;0;377;507;-699;-4018;-194;-93;-80
208159;1;5;0;377;502;-684;-4043;-188;-130;-45
208169;1;5;0;377;546;-700;-4061;-174;-153;-23
208179;1;5;0;377;560;-716;-4100;-171;-126;-23
208189;1;5;0;377;551;-722;-4098;-157;-86;-46
208199;1;5;0;377;532;-730;-4092;-151;-70;-89
208209;1;5;0;377;523;-731;-4077;-169;-72;-116
208219;1;5;0;377;556;-723;-4061;-190;-74;-123
208229;1;5;0;377;562;-732;-4024;-192;-75;-118
208239;1;5;0;377;531;-744;-4046;-198;-96;-93
208249;1;5;0;377;521;-762;-4024;-190;-134;-78
208259;1;5;0;377;499;-761;-4047;-199;-182;-86
208269;1;5;0;377;481;-764;-4062;-189;-207;-92
208279;1;5;0;377;481;-737;-4087;-182;-219;-98
208289;1;5;0;377;486;-721;-4091;-187;-206;-100
208299;1;5;0;377;500;-721;-4060;-180;-182;-73
208309;1;5;0;377;513;-708;-4057;-193;-169;-40
208319;1;5;0;377;520;-698;-4073;-195;-175;-7
208329;1;5;0;377;537;-679;-4104;-189;-162;26
208339;1;5;0;377;533;-690;-4100;-194;-125;65
208349;1;5;0;377;515;-721;-4071;-193;-116;74
208359;1;5;0;377;507;-795;-4043;-186;-132;54
208369;1;5;0;377;483;-820;-4023;-201;-162;-15
208379;1;5;0;377;465;-826;-4043;-210;-214;-128
208389;1;5;0;377;511;-761;-4093;-218;-230;-200
208399;1;5;0;377;527;-709;-4065;-224;-207;-211
208409;1;5;0;377;511;-669;-4057;-213;-193;-156
208419;1;5;0;377;525;-674;-4077;-207;-206;-99
208429;1;5;0;377;493;-673;-4075;-190;-210;-31
208439;1;5;0;377;469;-689;-4075;-170;-201;-5
208449;1;5;0;377;453;-720;-4049;-159;-181;18
208459;1;5;0;377;428;-755;-4019;-140;-192;-13
208469;1;5;0;377;440;-769;-3995;-139;-241;-52
208479;1;5;0;377;501;-748;-4062;-135;-281;-107
208489;1;5;0;377;551;-707;-4067;-142;-262;-131
208499;1;5;0;377;555;-657;-4071;-146;-244;-105
208509;1;5;0;377;545;-655;-4089;-136;-245;-32
208519;1;5;0;377;525;-675;-4096;-151;-240;56
208529;1;5;0;377;523;-698;-4096;-143;-216;126
208539;1;5;0;377;483;-716;-4084;-142;-170;147
208549;1;5;0;377;440;-758;-4034;-109;-192;118
208559;1;5;0;377;407;-758;-4013;-84;-232;66
208569;1;5;0;377;419;-732;-4056;-80;-288;39
208579;1;5;0;378;505;-747;-4073;-119;-316;38
208589;1;5;0;378;530;-754;-4103;-143;-206;57
208599;1;5;0;378;445;-754;-4107;-167;-147;72
208609;1;5;0;378;421;-766;-4142;-202;-161;68
208619;1;5;0;378;429;-752;-4141;-201;-165;41
208629;1;5;0;378;452;-722;-4121;-169;-169;4
208639;1;5;0;378;435;-688;-4073;-132;-170;2
208649;1;5;0;378;407;-696;-4003;-101;-177;38
208659;1;5;0;378;419;-712;-3963;-89;-231;76
208669;1;5;0;378;466;-760;-3969;-105;-263;69
208679;1;5;0;378;483;-783;-3975;-138;-259;42
208689;1;5;0;378;501;-749;-4008;-168;-281;4
208699;1;5;0;378;535;-706;-4069;-181;-273;-19
208709;1;5;0;378;531;-692;-4125;-191;-247;-14
208719;1;5;0;378;491;-693;-4142;-204;-196;0
208729;1;5;0;378;459;-714;-4140;-208;-143;30
208739;1;5;0;378;392;-734;-4103;-194;-136;56
208749;1;5;0;378;396;-719;-4024;-198;-216;39
208759;1;5;0;378;187;-872;-4129;4;-302;456
208769;1;5;0;378;249;-615;-3926;35;-544;258
208779;1;5;0;378;412;-666;-4022;-81;-427;-11
208789;1;5;0;378;648;-715;-4156;-94;-208;-8
208799;1;5;0;378;489;-689;-4109;-123;-119;52
208809;1;5;0;378;435;-739;-4052;-121;-101;76
208819;1;5;0;378;402;-733;-4047;-135;-150;95
208829;1;5;0;378;420;-761;-4030;-137;-202;79
208839;1;5;0;378;441;-756;-4046;-135;-217;44
208849;1;5;0;378;433;-738;-4041;-143;-222;23
208859;1;5;0;378;434;-734;-4063;-154;-234;29
208869;1;5;0;378;456;-739;-4034;-163;-235;37
208879;1;5;0;378;446;-742;-4065;-161;-221;19
208889;1;5;0;378;448;-725;-4086;-173;-226;5
208899;1;5;0;378;435;-710;-4096;-164;-226;5
208909;1;5;0;378;417;-710;-4116;-152;-236;20
208919;1;5;0;378;436;-707;-4131;-136;-235;70
208929;1;5;0;378;423;-741;-4107;-135;-190;67
208939;1;5;0;378;359;-764;-4037;-136;-131;58
208949;1;5;0;378;396;-757;-3942;-162;-204;55
208959;1;5;0;378;229;-839;-4007;-104;-395;184
208969;1;5;0;378;369;-675;-3902;-97;-471;4
208979;1;5;0;378;489;-699;-4108;-138;-342;-84
208989;1;5;0;378;496;-664;-4146;-142;-233;-7
208999;1;5;0;378;420;-680;-4098;-169;-184;70
209009;1;5;0;378;404;-734;-4070;-182;-189;77
209019;1;5;0;378;400;-754;-4062;-169;-233;42
209029;1;5;0;378;393;-740;-4089;-146;-247;7
209039;1;5;0;378;396;-723;-4067;-124;-244;-2
209049;1;5;0;378;337;-758;-4024;-127;-227;24
209059;1;5;0;378;332;-770;-4018;-145;-230;36
209069;1;5;0;378;371;-762;-4011;-159;-227;16
209079;1;5;0;379;387;-754;-4069;-156;-212;-23
209089;1;5;0;379;391;-736;-4131;-167;-192;-70
209099;1;5;0;379;418;-696;-4130;-161;-152;-98
209109;1;5;0;379;427;-690;-4115;-157;-115;-82
209119;1;5;0;379;388;-693;-4065;-156;-84;-38
209129;1;5;0;379;342;-733;-4054;-148;-105;-7
209139;1;5;0;379;345;-722;-4060;-135;-124;-12
209149;1;5;0;379;379;-701;-4105;-120;-109;-16
209159;1;5;0;379;373;-706;-4110;-120;-70;7
209169;1;5;0;379;396;-739;-4071;-124;-46;-6
209179;1;5;0;379;412;-781;-4037;-131;-22;-46
209189;1;5;0;379;388;-780;-4031;-151;-20;-78
209199;1;5;0;379;385;-766;-4051;-173;-54;-62
209209;1;5;0;379;422;-744;-4078;-190;-88;-56
209219;1;5;0;379;424;-743;-4068;-201;-92;-68
209229;1;5;0;379;411;-732;-4074;-187;-100;-86
209239;1;5;0;379;374;-724;-4078;-171;-118;-97
209249;1;5;0;379;377;-747;-4073;-169;-136;-99
209259;1;5;0;379;397;-741;-4074;-156;-138;-101
209269;1;5;0;379;363;-748;-4059;-154;-141;-104
209279;1;5;0;379;363;-746;-4056;-168;-140;-105
209289;1;5;0;379;374;-734;-4069;-173;-144;-104
209299;1;5;0;379;371;-730;-4073;-172;-111;-117
209309;1;5;0;379;379;-722;-4056;-184;-73;-126
209319;1;5;0;379;380;-731;-4070;-198;-59;-138
209329;1;5;0;379;393;-729;-4073;-193;-60;-150
209339;1;5;0;379;409;-714;-4063;-179;-41;-153
209349;1;5;0;379;379;-698;-4051;-154;-20;-146
209359;1;5;0;379;352;-696;-4063;-162;-59;-110
209369;1;5;0;379;402;-728;-4107;-177;-103;-81
209379;1;5;0;379;445;-733;-4078;-178;-40;-85
209389;1;5;0;379;389;-728;-4095;-183;-15;-95
209399;1;5;0;379;374;-756;-4093;-197;-17;-117
209409;1;5;0;379;372;-750;-4050;-186;-15;-170
209419;1;5;0;379;379;-737;-4022;-172;-38;-207
209429;1;5;0;379;378;-708;-4021;-173;-79;-204
209439;1;5;0;379;393;-697;-4087;-171;-95;-164
209449;1;5;0;379;410;-694;-4104;-169;-81;-128
209459;1;5;0;379;427;-723;-4086;-156;-69;-114
209469;1;5;0;379;400;-713;-4056;-150;-53;-129
209479;1;5;0;379;401;-706;-4051;-153;-46;-134
209489;1;5;0;379;392;-714;-4048;-147;-61;-131
209499;1;5;0;379;394;-716;-4090;-164;-61;-120
209509;1;5;0;379;407;-725;-4103;-168;-40;-112
209519;1;5;0;379;388;-738;-4121;-154;-16;-127
209529;1;5;0;379;392;-730;-4072;-141;-3;-129
209539;1;5;0;379;390;-724;-4033;-121;-21;-121
209549;1;5;0;379;379;-746;-4002;-123;-50;-117
209559;1;5;0;379;403;-757;-4020;-137;-82;-132
209569;1;5;0;379;433;-757;-4041;-148;-109;-159
209579;1;5;0;380;418;-741;-4098;-158;-115;-167
209589;1;5;0;380;397;-743;-4119;-168;-94;-176
209599;1;5;0;380;412;-728;-4113;-162;-75;-199
209609;1;5;0;380;380;-718;-4066;-163;-62;-209
209619;1;5;0;380;395;-697;-4044;-150;-80;-189
209629;1;5;0;380;402;-702;-4050;-145;-94;-150
209639;1;5;0;380;396;-703;-4070;-153;-80;-132
209649;1;5;0;380;420;-710;-4090;-137;-62;-126
209659;1;5;0;380;401;-722;-4116;-117;-66;-144
209669;1;5;0;380;383;-728;-4115;-107;-45;-150
209679;1;5;0;380;390;-741;-4112;-123;-35;-153
209689;1;5;0;380;403;-761;-4087;-126;-5;-173
209699;1;5;0;380;391;-745;-4025;-124;9;-203
209709;1;5;0;380;364;-726;-3991;-130;-15;-199
209719;1;5;0;380;370;-720;-4001;-149;-65;-197
209729;1;5;0;380;423;-723;-4038;-146;-104;-189
209739;1;5;0;380;456;-727;-4066;-137;-134;-196
209749;1;5;0;380;448;-722;-4087;-130;-144;-200
209759;1;5;0;380;429;-708;-4119;-135;-118;-215
209769;1;5;0;380;438;-701;-4095;-126;-86;-197
209779;1;5;0;380;399;-691;-4087;-126;-55;-161
209789;1;5;0;380;386;-685;-4069;-122;-39;-112
209799;1;5;0;380;395;-698;-4065;-107;-45;-69
209809;1;5;0;380;389;-713;-4080;-96;-37;-54
209819;1;5;0;380;367;-721;-4098;-90;-58;-82
209829;1;5;0;380;425;-730;-4107;-91;-55;-110
209839;1;5;0;380;464;-699;-4089;-85;-33;-114
209849;1;5;0;380;465;-696;-4067;-76;-10;-79
209859;1;5;0;380;440;-696;-4082;-84;17;-38
209869;1;5;0;380;439;-718;-4101;-97;18;-32
209879;1;5;0;380;448;-732;-4059;-91;6;-20
209889;1;5;0;380;435;-743;-4072;-101;3;-18
209899;1;5;0;380;408;-761;-4044;-96;11;-6
209909;1;5;0;380;383;-761;-4021;-107;-3;-18
209919;1;5;0;380;365;-784;-4032;-129;-55;-67
209929;1;5;0;380;396;-785;-4063;-126;-132;-122
209939;1;5;0;380;428;-759;-4107;-145;-166;-189
209949;1;5;0;380;482;-719;-4126;-155;-149;-202
209959;1;5;0;380;488;-687;-4135;-142;-98;-180
209969;1;5;0;380;463;-684;-4109;-147;-54;-128
209979;1;5;0;380;437;-700;-4074;-159;-35;-90
209989;1;5;0;380;424;-712;-4050;-156;-45;-66
209999;1;5;0;380;408;-706;-4038;-143;-54;-55
210009;1;5;0;380;411;-717;-4057;-144;-59;-34
210019;1;5;0;380;416;-735;-4074;-144;-82;-15
210029;1;5;0;380;440;-732;-4102;-159;-78;-23
210039;1;5;0;380;455;-725;-4097;-164;-44;-36
210049;1;5;0;380;455;-709;-4103;-178;-30;-36
210059;1;5;0;380;447;-730;-4094;-197;-25;-13
210069;1;5;0;380;437;-732;-4089;-202;-25;8
210079;1;5;0;381;434;-741;-4082;-196;-40;11
210089;1;5;0;381;417;-748;-4064;-195;-57;10
210099;1;5;0;381;407;-747;-4038;-192;-75;20
210109;1;5;0;381;435;-754;-4053;-193;-161;8
210119;1;5;0;381;466;-764;-4079;-173;-222;-19
210129;1;5;0;381;498;-716;-4079;-169;-224;-37
210139;1;5;0;381;473;-698;-4083;-182;-217;-23
210149;1;5;0;381;442;-691;-4061;-162;-232;15
210159;1;5;0;381;436;-704;-4079;-170;-241;45
210169;1;5;0;381;421;-712;-4071;-182;-239;58
210179;1;5;0;381;437;-720;-4087;-191;-216;39
210189;1;5;0;381;433;-695;-4056;-166;-164;29
210199;1;5;0;381;384;-677;-4057;-146;-164;60
210209;1;5;0;381;399;-686;-4079;-158;-183;122
210219;1;5;0;381;428;-718;-4109;-166;-173;152
210229;1;5;0;381;411;-746;-4093;-145;-124;148
210239;1;5;0;381;385;-740;-4108;-148;-112;134
210249;1;5;0;381;397;-742;-4096;-158;-135;127
210259;1;5;0;381;410;-741;-4092;-137;-130;114
210269;1;5;0;381;402;-730;-4081;-113;-127;104
210279;1;5;0;381;378;-711;-4054;-101;-123;126
210289;1;5;0;381;371;-718;-4046;-114;-163;157
210299;1;5;0;381;400;-737;-4076;-110;-199;155
210309;1;5;0;381;431;-737;-4093;-105;-184;132
210319;1;5;0;381;436;-732;-4113;-96;-163;111
210329;1;5;0;381;453;-714;-4091;-96;-161;106
210339;1;5;0;381;449;-707;-4089;-99;-137;125
210349;1;5;0;381;428;-699;-4067;-109;-99;150
210359;1;5;0;381;377;-746;-4059;-109;-63;157
210369;1;5;0;381;328;-782;-4045;-100;-93;150
210379;1;5;0;381;336;-774;-4048;-107;-143;121
210389;1;5;0;381;385;-748;-4063;-113;-162;90
210399;1;5;0;381;422;-736;-4109;-114;-146;76
210409;1;5;0;381;421;-727;-4117;-119;-107;75
210419;1;5;0;381;389;-743;-4087;-117;-85;76
210429;1;5;0;381;393;-735;-4069;-117;-82;85
210439;1;5;0;381;386;-731;-4068;-122;-109;97
210449;1;5;0;381;376;-737;-4063;-107;-136;100
210459;1;5;0;381;377;-749;-4091;-108;-157;95
210469;1;5;0;381;386;-741;-4098;-95;-141;93
210479;1;5;0;381;404;-743;-4100;-111;-138;89
210489;1;5;0;381;418;-728;-4059;-117;-130;88
210499;1;5;0;381;428;-745;-4062;-119;-147;98
210509;1;5;0;381;389;-731;-4037;-104;-152;105
210519;1;5;0;381;394;-730;-4033;-100;-183;111
210529;1;5;0;381;386;-735;-4048;-94;-187;115
210539;1;5;0;381;387;-749;-4087;-96;-201;101
210549;1;5;0;381;395;-760;-4084;-107;-155;85
210559;1;5;0;381;356;-755;-4063;-116;-150;64
210569;1;5;0;381;359;-756;-4034;-119;-164;55
210579;1;5;0;382;398;-738;-4055;-129;-174;56
210589;1;5;0;382;393;-742;-4049;-137;-167;59
210599;1;5;0;382;375;-736;-4051;-121;-184;56
210609;1;5;0;382;370;-726;-4030;-97;-207;49
210619;1;5;0;382;377;-737;-4059;-93;-222;57
210629;1;5;0;382;387;-720;-4042;-102;-205;67
210639;1;5;0;382;381;-727;-4040;-113;-182;67
210649;1;5;0;382;348;-753;-4054;-115;-150;63
210659;1;5;0;382;357;-764;-4073;-134;-125;54
210669;1;5;0;382;353;-747;-4073;-144;-117;37
210679;1;5;0;382;363;-764;-4063;-145;-97;16
210689;1;5;0;382;362;-742;-4044;-142;-85;2
210699;1;5;0;382;356;-742;-4032;-146;-92;-5
210709;1;5;0;382;367;-744;-4040;-136;-114;-7
210719;1;5;0;382;382;-754;-4050;-147;-103;-9
210729;1;5;0;382;380;-757;-4061;-141;-94;-13
210739;1;5;0;382;361;-753;-4059;-148;-76;-23
210749;1;5;0;382;357;-757;-4037;-138;-73;-29
210759;1;5;0;382;345;-746;-4041;-136;-57;-34
210769;1;5;0;382;355;-744;-4038;-152;-46;-42
210779;1;5;0;382;374;-734;-4029;-155;-20;-60
210789;1;5;0;382;359;-734;-4049;-168;1;-71
210799;1;5;0;382;380;-721;-4064;-170;22;-79
210809;1;5;0;382;382;-739;-4064;-181;44;-81
210819;1;5;0;382;360;-744;-4068;-193;55;-78
210829;1;5;0;382;357;-752;-4069;-197;58;-70
210839;1;5;0;382;365;-763;-4063;-213;50;-69
210849;1;5;0;382;362;-758;-4066;-208;26;-86
210859;1;5;0;382;396;-749;-4082;-214;11;-108
210869;1;5;0;382;411;-738;-4089;-218;18;-121
210879;1;5;0;382;419;-729;-4096;-215;21;-121
210889;1;5;0;382;421;-734;-4096;-215;19;-110
210899;1;5;0;382;410;-724;-4085;-204;3;-107
210909;1;5;0;382;415;-717;-4045;-196;-16;-89
210919;1;5;0;382;418;-724;-4034;-185;-57;-56
210929;1;5;0;382;401;-735;-4050;-166;-96;-51
210939;1;5;0;382;426;-740;-4048;-150;-113;-52
210949;1;5;0;382;402;-744;-4059;-146;-90;-60
210959;1;5;0;382;366;-729;-4094;-136;-112;-42
210969;1;5;0;382;373;-748;-4103;-157;-155;-24
210979;1;5;0;382;407;-782;-4085;-164;-110;-37
210989;1;5;0;382;368;-767;-4084;-167;-80;-49
210999;1;5;0;382;369;-780;-4072;-198;-110;-51
211009;1;5;0;382;376;-750;-4056;-187;-118;-70
211019;1;5;0;382;388;-736;-4044;-160;-151;-84
211029;1;5;0;382;398;-717;-4025;-139;-198;-64
211039;1;5;0;382;397;-704;-4031;-128;-239;-21
211049;1;5;0;382;409;-727;-4068;-137;-248;9
211059;1;5;0;382;410;-736;-4101;-131;-220;20
211069;1;5;0;382;370;-739;-4080;-124;-183;15
211079;1;5;0;383;366;-730;-4050;-127;-169;4
211089;1;5;0;383;365;-731;-4042;-137;-174;-8
211099;1;5;0;383;376;-741;-4076;-155;-170;-29
211109;1;5;0;383;405;-749;-4092;-155;-144;-60
211119;1;5;0;383;382;-753;-4084;-169;-116;-83
211129;1;5;0;383;366;-734;-4083;-173;-110;-90
211139;1;5;0;383;375;-721;-4057;-171;-119;-79
211149;1;5;0;383;388;-723;-4061;-165;-138;-54
211159;1;5;0;383;380;-721;-4054;-141;-164;-38
211169;1;5;0;383;376;-719;-4064;-129;-190;-24
211179;1;5;0;383;371;-744;-4070;-119;-209;-17
211189;1;5;0;383;377;-758;-4091;-132;-186;-29
211199;1;5;0;383;373;-749;-4095;-140;-157;-41
211209;1;5;0;383;350;-751;-4097;-165;-125;-58
211219;1;5;0;383;353;-734;-4095;-173;-115;-75
211229;1;5;0;383;361;-736;-4067;-164;-117;-95
211239;1;5;0;383;363;-736;-4052;-155;-129;-97
211249;1;5;0;383;367;-724;-4041;-157;-145;-88
211259;1;5;0;383;377;-723;-4066;-149;-184;-72
211269;1;5;0;383;370;-734;-4098;-149;-192;-66
211279;1;5;0;383;411;-754;-4144;-167;-179;-77
211289;1;5;0;383;399;-763;-4111;-166;-118;-107
211299;1;5;0;383;359;-728;-4057;-149;-99;-117
211309;1;5;0;383;339;-719;-4045;-151;-136;-81
211319;1;5;0;383;368;-719;-4051;-148;-178;-40
211329;1;5;0;383;382;-715;-4081;-132;-181;-27
211339;1;5;0;383;381;-719;-4077;-120;-181;-21
211349;1;5;0;383;373;-737;-4072;-113;-181;-4
211359;1;5;0;383;374;-741;-4067;-123;-173;-1
211369;1;5;0;383;349;-747;-4062;-118;-167;1
211379;1;5;0;383;344;-745;-4076;-126;-165;4
211389;1;5;0;383;335;-767;-4081;-136;-150;-2
211399;1;5;0;383;344;-762;-4083;-144;-138;-26
211409;1;5;0;383;350;-763;-4075;-153;-145;-62
211419;1;5;0;383;359;-762;-4087;-150;-143;-89
211429;1;5;0;383;369;-736;-4102;-157;-137;-102
211439;1;5;0;383;366;-738;-4073;-155;-138;-113
211449;1;5;0;383;369;-749;-4070;-151;-144;-101
211459;1;5;0;383;364;-735;-4044;-156;-148;-77
211469;1;5;0;383;349;-745;-4035;-152;-155;-73
211479;1;5;0;383;345;-731;-4054;-148;-162;-57
211489;1;5;0;383;358;-713;-4071;-148;-162;-47
211499;1;5;0;383;350;-733;-4082;-134;-162;-55
211509;1;5;0;383;351;-735;-4091;-134;-142;-84
211519;1;5;0;383;351;-742;-4086;-119;-126;-106
211529;1;5;0;383;341;-744;-4057;-130;-122;-110
211539;1;5;0;383;350;-733;-4054;-135;-127;-81
211549;1;5;0;383;357;-719;-4052;-139;-139;-52
211559;1;5;0;383;381;-724;-4090;-141;-134;-40
211569;1;5;0;383;373;-723;-4104;-147;-117;-41
211579;1;5;0;384;370;-756;-4091;-144;-98;-62
211589;1;5;0;384;353;-741;-4053;-138;-104;-79
211599;1;5;0;384;316;-759;-4029;-135;-123;-77
211609;1;5;0;384;322;-747;-4023;-131;-147;-78
211619;1;5;0;384;321;-738;-4021;-129;-166;-77
211629;1;5;0;384;326;-728;-4050;-139;-169;-61
211639;1;5;0;384;336;-734;-4112;-159;-163;-62
211649;1;5;0;384;366;-740;-4135;-152;-137;-74
211659;1;5;0;384;361;-742;-4098;-155;-89;-101
211669;1;5;0;384;355;-727;-4071;-157;-72;-93
211679;1;5;0;384;340;-731;-4046;-143;-86;-66
211689;1;5;0;384;335;-729;-4055;-147;-117;-48
211699;1;5;0;384;355;-734;-4052;-139;-134;-52
211709;1;5;0;384;364;-727;-4051;-131;-144;-71
211719;1;5;0;384;365;-718;-4067;-119;-130;-72
211729;1;5;0;384;340;-723;-4056;-94;-115;-61
211739;1;5;0;384;329;-706;-4116;-113;-122;-28
211749;1;5;0;384;368;-735;-4100;-140;-134;-3
211759;1;5;0;384;377;-761;-4070;-129;-92;-4
211769;1;5;0;384;313;-751;-4052;-125;-78;-8
211779;1;5;0;384;309;-764;-4046;-127;-131;-22
211789;1;5;0;384;344;-785;-4040;-120;-160;-59
211799;1;5;0;384;360;-740;-4053;-118;-161;-105
211809;1;5;0;384;358;-715;-4051;-110;-153;-94
211819;1;5;0;384;362;-698;-4066;-122;-159;-69
211829;1;5;0;384;350;-740;-4085;-120;-167;-30
211839;1;5;0;384;341;-742;-4056;-115;-164;-19
211849;1;5;0;384;318;-748;-4053;-112;-174;-27
211859;1;5;0;384;342;-738;-4054;-113;-205;-37
211869;1;5;0;384;369;-728;-4090;-112;-195;-39
211879;1;5;0;384;366;-726;-4112;-119;-163;-46
211889;1;5;0;384;336;-760;-4109;-119;-114;-51
211899;1;5;0;384;332;-746;-4097;-123;-94;-59
211909;1;5;0;384;286;-762;-4079;-111;-91;-56
211919;1;5;0;384;289;-771;-4056;-113;-104;-50
211929;1;5;0;384;317;-773;-4044;-128;-125;-40
211939;1;5;0;384;334;-745;-4041;-132;-153;-37
211949;1;5;0;384;369;-729;-4094;-126;-159;-40
211959;1;5;0;384;376;-751;-4068;-128;-146;-50
211969;1;5;0;384;355;-756;-4072;-134;-152;-66
211979;1;5;0;384;339;-752;-4092;-131;-160;-74
211989;1;5;0;384;326;-739;-4077;-140;-160;-76
211999;1;5;0;384;325;-739;-4063;-139;-168;-53
212009;1;5;0;384;327;-733;-4026;-126;-219;-27
212019;1;5;0;384;335;-738;-4049;-105;-239;-11
212029;1;5;0;384;354;-745;-4079;-97;-236;7
212039;1;5;0;384;359;-744;-4097;-100;-223;-18
212049;1;5;0;384;341;-739;-4085;-118;-184;-39
212059;1;5;0;384;315;-721;-4094;-119;-157;-24
212069;1;5;0;384;316;-728;-4083;-127;-140;-7
212079;1;5;0;385;300;-751;-4046;-112;-117;1
212089;1;5;0;385;293;-750;-4004;-103;-146;6
212099;1;5;0;385;317;-775;-4054;-102;-202;5
212109;1;5;0;385;350;-753;-4085;-105;-207;-20
212119;1;5;0;385;372;-751;-4095;-115;-149;-51
212129;1;5;0;385;308;-742;-4092;-108;-126;-43
212139;1;5;0;385;282;-740;-4085;-115;-145;3
212149;1;5;0;385;307;-730;-4089;-103;-166;27
212159;1;5;0;385;300;-756;-4080;-99;-150;27
212169;1;5;0;385;306;-772;-4072;-85;-141;16
212179;1;5;0;385;309;-754;-4042;-91;-152;3
212189;1;5;0;385;315;-758;-4063;-90;-167;-4
212199;1;5;0;385;342;-743;-4063;-90;-149;-2
212209;1;5;0;385;341;-753;-4085;-90;-138;0
212219;1;5;0;385;305;-758;-4086;-94;-131;-8
212229;1;5;0;385;304;-752;-4064;-103;-124;-16
212239;1;5;0;385;299;-756;-4059;-108;-128;-5
212249;1;5;0;385;310;-755;-4026;-99;-125;-8
212259;1;5;0;385;304;-768;-4047;-109;-144;-11
212269;1;5;0;385;320;-758;-4056;-112;-139;-21
212279;1;5;0;385;311;-737;-4079;-100;-132;-26
212289;1;5;0;385;303;-747;-4081;-87;-135;-32
212299;1;5;0;385;303;-762;-4096;-96;-138;-28
212309;1;5;0;385;327;-756;-4077;-98;-116;-32
212319;1;5;0;385;330;-752;-4088;-97;-99;-19
212329;1;5;0;385;313;-772;-4081;-92;-106;-15
212339;1;5;0;385;309;-763;-4064;-87;-120;-9
212349;1;5;0;385;304;-753;-4052;-91;-120;-8
212359;1;5;0;385;318;-760;-4053;-86;-109;-11
212369;1;5;0;385;297;-770;-4069;-82;-93;-15
212379;1;5;0;385;281;-787;-4076;-99;-85;-25
212389;1;5;0;385;288;-780;-4080;-103;-87;-55
212399;1;5;0;385;308;-773;-4075;-109;-86;-52
212409;1;5;0;385;308;-785;-4047;-116;-93;-55
212419;1;5;0;385;317;-790;-4052;-113;-125;-72
212429;1;5;0;385;323;-785;-4095;-109;-149;-84
212439;1;5;0;385;323;-767;-4093;-107;-124;-97
212449;1;5;0;385;291;-761;-4083;-109;-121;-93
212459;1;5;0;385;302;-753;-4078;-112;-118;-75
212469;1;5;0;385;295;-756;-4063;-100;-131;-66
212479;1;5;0;385;309;-772;-4053;-107;-133;-46
212489;1;5;0;385;324;-774;-4049;-91;-154;-30
212499;1;5;0;385;327;-777;-4049;-95;-153;-27
212509;1;5;0;385;305;-761;-4099;-92;-137;-15
212519;1;5;0;385;163;-661;-3981;-144;-275;-76
212529;1;5;0;385;163;-757;-4075;-175;-477;64
212539;1;5;0;385;373;-805;-4002;-57;-370;73
212549;1;5;0;385;395;-718;-4099;-66;-197;18
212559;1;5;0;385;274;-759;-4100;-102;-114;57
212569;1;5;0;385;322;-795;-4141;-132;-91;27
212579;1;5;0;386;275;-769;-4076;-111;-80;51
212589;1;5;0;386;269;-758;-4079;-108;-90;70
212599;1;5;0;386;293;-780;-4066;-116;-103;73
212609;1;5;0;386;290;-821;-4051;-94;-112;45
212619;1;5;0;386;276;-807;-4015;-78;-140;18
212629;1;5;0;386;320;-773;-4035;-87;-174;18
212639;1;5;0;386;314;-759;-4080;-94;-168;32
212649;1;5;0;386;313;-757;-4099;-119;-142;40
212659;1;5;0;386;293;-765;-4094;-129;-105;48
212669;1;5;0;386;258;-766;-4069;-109;-88;42
212679;1;5;0;386;253;-791;-4067;-110;-86;27
212689;1;5;0;386;232;-814;-4042;-101;-95;10
212699;1;5;0;386;236;-809;-4046;-117;-100;-6
212709;1;5;0;386;280;-786;-4073;-105;-111;-18
212719;1;5;0;386;72;-653;-3937;-167;-281;-62
212729;1;5;0;386;142;-696;-4102;-266;-670;-8
212739;1;5;0;386;507;-890;-4040;-61;-483;155
212749;1;5;0;386;487;-774;-4122;-55;-273;35
212759;1;5;0;386;338;-724;-4147;-99;-62;47
212769;1;5;0;386;221;-848;-4096;-127;-79;116
212779;1;5;0;386;247;-860;-4067;-122;-116;55
212789;1;5;0;386;278;-805;-4042;-126;-144;12
212799;1;5;0;386;289;-788;-4046;-143;-176;-4
212809;1;5;0;386;290;-779;-4038;-147;-204;2
212819;1;5;0;386;300;-773;-4070;-151;-220;9
212829;1;5;0;386;288;-795;-4067;-152;-225;23
212839;1;5;0;386;263;-787;-4049;-149;-235;36
212849;1;5;0;386;260;-790;-4064;-144;-246;36
212859;1;5;0;386;265;-806;-4091;-151;-247;21
212869;1;5;0;386;262;-796;-4108;-147;-239;-4
212879;1;5;0;386;267;-782;-4097;-147;-242;-23
212889;1;5;0;386;272;-786;-4066;-137;-225;-17
212899;1;5;0;386;238;-780;-4032;-131;-205;-7
212909;1;5;0;386;219;-788;-4034;-149;-209;-6
212919;1;5;0;386;212;-793;-4034;-155;-204;-14
212929;1;5;0;386;187;-751;-4074;-247;-382;-50
212939;1;5;0;386;230;-818;-4045;-208;-542;48
212949;1;5;0;386;367;-848;-4064;-127;-340;-10
212959;1;5;0;386;342;-734;-4117;-136;-214;-65
212969;1;5;0;386;258;-726;-4099;-161;-150;-26
212979;1;5;0;386;201;-793;-4074;-156;-163;-1
212989;1;5;0;386;239;-796;-4086;-140;-167;-8
212999;1;5;0;386;221;-798;-4094;-137;-144;-1
213009;1;5;0;386;185;-801;-4054;-145;-138;-12
213019;1;5;0;386;216;-777;-4052;-151;-160;-28
213029;1;5;0;386;233;-762;-4046;-145;-155;-28
213039;1;5;0;386;250;-753;-4065;-137;-139;-26
213049;1;5;0;386;249;-780;-4074;-144;-111;-23
213059;1;5;0;386;236;-789;-4066;-143;-90;-14
213069;1;5;0;386;224;-795;-4071;-149;-93;-14
213079;1;5;0;387;213;-790;-4037;-147;-109;-23
213089;1;5;0;387;220;-794;-4036;-145;-125;-29
213099;1;5;0;387;236;-795;-4056;-144;-146;-33
213109;1;5;0;387;248;-782;-4069;-154;-135;-42
213119;1;5;0;387;262;-767;-4090;-155;-122;-34
213129;1;5;0;387;238;-761;-4093;-159;-106;-35
213139;1;5;0;387;237;-752;-4083;-153;-90;-22
213149;1;5;0;387;210;-776;-4060;-143;-79;0
213159;1;5;0;387;216;-801;-4041;-135;-82;-3
213169;1;5;0;387;194;-801;-4046;-132;-91;-11
213179;1;5;0;387;205;-798;-4056;-122;-95;-17
213189;1;5;0;387;222;-806;-4049;-135;-81;-35
213199;1;5;0;387;246;-786;-4073;-145;-56;-49
213209;1;5;0;387;232;-785;-4074;-150;-23;-63
213219;1;5;0;387;208;-782;-4070;-156;-13;-69
213229;1;5;0;387;229;-777;-4066;-167;-4;-68
213239;1;5;0;387;240;-782;-4063;-156;2;-70
213249;1;5;0;387;228;-784;-4051;-152;-12;-72
213259;1;5;0;387;215;-793;-4044;-152;-18;-89
213269;1;5;0;387;224;-797;-4036;-147;-25;-100
213279;1;5;0;387;237;-789;-4069;-161;-34;-117
213289;1;5;0;387;249;-777;-4087;-168;-33;-121
213299;1;5;0;387;264;-746;-4094;-174;-15;-115
213309;1;5;0;387;260;-739;-4069;-145;-6;-95
213319;1;5;0;387;233;-738;-4046;-127;-23;-58
213329;1;5;0;387;238;-753;-4085;-130;-83;-13
213339;1;5;0;387;287;-828;-4116;-141;-90;-4
213349;1;5;0;387;239;-824;-4060;-134;-31;-11
213359;1;5;0;387;191;-849;-4051;-149;-59;-47
213369;1;5;0;387;218;-827;-4044;-149;-106;-99
213379;1;5;0;387;252;-794;-4030;-141;-122;-133
213389;1;5;0;387;254;-773;-4010;-128;-165;-124
213399;1;5;0;387;255;-768;-4037;-112;-197;-101
213409;1;5;0;387;284;-741;-4069;-118;-199;-66
213419;1;5;0;387;281;-766;-4082;-125;-176;-38
213429;1;5;0;387;243;-779;-4072;-140;-153;-31
213439;1;5;0;387;238;-774;-4062;-133;-154;-41
213449;1;5;0;387;260;-760;-4072;-140;-158;-50
213459;1;5;0;387;286;-744;-4076;-127;-138;-43
213469;1;5;0;387;254;-751;-4083;-130;-105;-28
213479;1;5;0;387;194;-767;-4094;-127;-91;-8
213489;1;5;0;387;162;-786;-4062;-116;-77;-11
213499;1;5;0;387;198;-808;-4080;-122;-60;-27
213509;1;5;0;387;225;-802;-4054;-125;-50;-59
213519;1;5;0;387;242;-807;-4057;-141;-28;-71
213529;1;5;0;387;256;-792;-4048;-145;-31;-75
213539;1;5;0;387;245;-792;-4041;-156;-27;-86
213549;1;5;0;387;245;-770;-4072;-156;-27;-80
213559;1;5;0;387;234;-763;-4051;-152;-19;-62
213569;1;5;0;387;218;-790;-4050;-150;-14;-54
213579;1;5;0;388;246;-794;-4049;-149;-30;-65
213589;1;5;0;388;243;-781;-4049;-152;-52;-86
213599;1;5;0;388;269;-779;-4087;-163;-62;-87
213609;1;5;0;388;293;-788;-4101;-166;-52;-89
213619;1;5;0;388;258;-790;-4108;-166;-33;-96
213629;1;5;0;388;243;-790;-4086;-171;-39;-102
213639;1;5;0;388;233;-778;-4069;-176;-47;-106
213649;1;5;0;388;242;-773;-4049;-164;-42;-106
213659;1;5;0;388;243;-775;-4036;-141;-60;-108
213669;1;5;0;388;271;-771;-4035;-138;-105;-96
213679;1;5;0;388;292;-787;-4075;-147;-122;-78
213689;1;5;0;388;295;-784;-4068;-170;-112;-71
213699;1;5;0;388;240;-798;-4073;-169;-98;-66
213709;1;5;0;388;233;-790;-4084;-170;-112;-57
213719;1;5;0;388;242;-786;-4062;-171;-135;-59
213729;1;5;0;388;245;-773;-4058;-158;-141;-53
213739;1;5;0;388;232;-761;-4058;-155;-150;-35
213749;1;5;0;388;239;-768;-4092;-147;-141;-28
213759;1;5;0;388;232;-775;-4059;-148;-127;-28
213769;1;5;0;388;233;-792;-4057;-161;-103;-30
213779;1;5;0;388;251;-794;-4055;-158;-113;-42
213789;1;5;0;388;221;-777;-4058;-148;-114;-48
213799;1;5;0;388;230;-772;-4053;-158;-99;-38
213809;1;5;0;388;254;-763;-4064;-144;-101;-12
213819;1;5;0;388;252;-755;-4065;-138;-89;4
213829;1;5;0;388;243;-775;-4078;-130;-114;24
213839;1;5;0;388;259;-783;-4070;-131;-116;23
213849;1;5;0;388;273;-794;-4078;-142;-100;19
213859;1;5;0;388;257;-817;-4081;-146;-105;19
213869;1;5;0;388;242;-819;-4050;-152;-124;-14
213879;1;5;0;388;230;-803;-4046;-143;-148;-57
213889;1;5;0;388;244;-781;-4044;-145;-160;-60
213899;1;5;0;388;248;-790;-4048;-148;-159;-54
213909;1;5;0;388;248;-774;-4044;-131;-132;-52
213919;1;5;0;388;240;-767;-4071;-147;-126;-30
213929;1;5;0;388;245;-792;-4070;-135;-125;-31
213939;1;5;0;388;254;-780;-4096;-145;-116;-24
213949;1;5;0;388;240;-792;-4087;-153;-117;-27
213959;1;5;0;388;213;-799;-4097;-142;-126;-44
213969;1;5;0;388;234;-796;-4088;-142;-137;-54
213979;1;5;0;388;201;-811;-4078;-153;-137;-68
213989;1;5;0;388;202;-831;-4075;-156;-154;-102
213999;1;5;0;388;218;-811;-4079;-184;-154;-129
214009;1;5;0;388;217;-798;-4060;-199;-130;-140
214019;1;5;0;388;211;-782;-4034;-191;-127;-145
214029;1;5;0;388;249;-747;-4053;-191;-118;-153
214039;1;5;0;388;259;-751;-4051;-162;-103;-135
214049;1;5;0;388;212;-745;-4046;-142;-81;-114
214059;1;5;0;388;201;-769;-4093;-161;-91;-71
214069;1;5;0;388;283;-790;-4129;-186;-98;-62
214079;1;5;0;389;271;-787;-4099;-178;-27;-83
214089;1;5;0;389;204;-793;-4073;-185;-6;-82
214099;1;5;0;389;226;-823;-4063;-196;-43;-111
214109;1;5;0;389;241;-814;-4018;-169;-69;-138
214119;1;5;0;389;226;-771;-4013;-149;-105;-141
214129;1;5;0;389;227;-743;-4042;-136;-131;-125
214139;1;5;0;389;251;-748;-4049;-135;-134;-98
214149;1;5;0;389;260;-753;-4073;-146;-119;-77
214159;1;5;0;389;287;-751;-4092;-149;-111;-64
214169;1;5;0;389;285;-759;-4110;-139;-80;-66
214179;1;5;0;389;230;-744;-4079;-137;-63;-58
214189;1;5;0;389;233;-749;-4068;-139;-58;-38
214199;1;5;0;389;238;-764;-4057;-124;-45;-32
214209;1;5;0;389;206;-778;-4058;-115;-25;-26
214219;1;5;0;389;204;-797;-4057;-112;-44;-27
214229;1;5;0;389;232;-789;-4053;-116;-63;-42
214239;1;5;0;389;248;-790;-4055;-119;-72;-49
214249;1;5;0;389;260;-765;-4060;-122;-69;-46
214259;1;5;0;389;251;-796;-4084;-133;-56;-38
214269;1;5;0;389;238;-802;-4078;-144;-55;-43
214279;1;5;0;389;231;-806;-4062;-144;-71;-54
214289;1;5;0;389;236;-815;-4056;-144;-87;-77
214299;1;5;0;389;211;-796;-4061;-157;-103;-101
214309;1;5;0;389;238;-785;-4052;-165;-108;-113
214319;1;5;0;389;245;-773;-4043;-170;-97;-123
214329;1;5;0;389;264;-769;-4064;-166;-110;-117
214339;1;5;0;389;271;-767;-4088;-153;-112;-108
214349;1;5;0;389;254;-784;-4076;-151;-83;-116
214359;1;5;0;389;225;-783;-4092;-162;-91;-110
214369;1;5;0;389;216;-788;-4066;-150;-75;-108
214379;1;5;0;389;208;-788;-4093;-166;-68;-107
214389;1;5;0;389;226;-800;-4085;-170;-43;-125
214399;1;5;0;389;239;-796;-4039;-146;-58;-151
214409;1;5;0;389;240;-770;-4035;-135;-78;-146
214419;1;5;0;389;271;-774;-4060;-153;-86;-129
214429;1;5;0;389;269;-787;-4073;-163;-91;-127
214439;1;5;0;389;236;-792;-4074;-152;-83;-137
214449;1;5;0;389;224;-778;-4075;-152;-63;-144
214459;1;5;0;389;205;-787;-4064;-141;-83;-140
214469;1;5;0;389;220;-777;-4061;-132;-104;-135
214479;1;5;0;389;231;-777;-4076;-145;-101;-138
214489;1;5;0;389;243;-785;-4077;-144;-88;-142
214499;1;5;0;389;249;-776;-4070;-147;-80;-151
214509;1;5;0;389;250;-776;-4083;-162;-70;-157
214519;1;5;0;389;254;-785;-4059;-153;-65;-158
214529;1;5;0;389;248;-787;-4057;-148;-70;-156
214539;1;5;0;389;243;-785;-4052;-150;-82;-145
214549;1;5;0;389;259;-759;-4056;-158;-72;-143
214559;1;5;0;389;264;-765;-4046;-166;-63;-133
214569;1;5;0;389;249;-777;-4066;-174;-55;-136
214579;1;5;0;390;252;-787;-4064;-174;-58;-141
214589;1;5;0;390;239;-785;-4076;-171;-62;-148
214599;1;5;0;390;228;-784;-4099;-176;-68;-161
214609;1;5;0;390;243;-800;-4088;-173;-61;-171
214619;1;5;0;390;254;-779;-4074;-167;-60;-165
214629;1;5;0;390;240;-775;-4057;-170;-46;-161
214639;1;5;0;390;248;-780;-4046;-178;-55;-153
214649;1;5;0;390;256;-780;-4065;-167;-81;-153
214659;1;5;0;390;258;-785;-4076;-177;-85;-160
214669;1;5;0;390;255;-771;-4097;-176;-62;-175
214679;1;5;0;390;255;-760;-4084;-178;-36;-178
214689;1;5;0;390;251;-772;-4059;-182;-19;-172
214699;1;5;0;390;266;-759;-4052;-174;-27;-155
214709;1;5;0;390;278;-764;-4067;-180;-46;-134
214719;1;5;0;390;268;-763;-4050;-172;-59;-131
214729;1;5;0;390;292;-755;-4048;-156;-53;-131
214739;1;5;0;390;264;-759;-4062;-139;-44;-131
214749;1;5;0;390;236;-740;-4079;-149;-73;-98
214759;1;5;0;390;287;-765;-4104;-166;-107;-77
214769;1;5;0;390;305;-779;-4077;-145;-68;-80
214779;1;5;0;390;245;-768;-4054;-142;-25;-86
214789;1;5;0;390;237;-767;-4053;-139;-59;-67
214799;1;5;0;390;252;-775;-4044;-114;-77;-59
214809;1;5;0;390;247;-779;-4038;-108;-98;-43
214819;1;5;0;390;253;-761;-4033;-89;-108;-54
214829;1;5;0;390;269;-747;-4062;-90;-119;-32
214839;1;5;0;390;291;-771;-4100;-105;-115;-23
214849;1;5;0;390;299;-776;-4093;-114;-87;-25
214859;1;5;0;390;256;-792;-4085;-117;-49;-54
214869;1;5;0;390;248;-780;-4068;-109;-67;-56
214879;1;5;0;390;242;-763;-4054;-100;-87;-47
214889;1;5;0;390;260;-776;-4071;-103;-87;-35
214899;1;5;0;390;249;-794;-4077;-109;-63;-52
214909;1;5;0;390;219;-798;-4058;-124;-52;-83
214919;1;5;0;390;238;-801;-4073;-123;-48;-111
214929;1;5;0;390;254;-782;-4069;-128;-44;-114
214939;1;5;0;390;262;-799;-4056;-123;-46;-104
214949;1;5;0;390;274;-787;-4067;-127;-57;-87
214959;1;5;0;390;293;-780;-4054;-136;-41;-90
214969;1;5;0;390;258;-788;-4044;-139;-55;-86
214979;1;5;0;390;250;-789;-4062;-144;-68;-96
214989;1;5;0;390;269;-788;-4053;-140;-79;-98
214999;1;5;0;390;286;-774;-4069;-137;-96;-87
215009;1;5;0;390;299;-785;-4089;-137;-98;-92
215019;1;5;0;390;279;-770;-4095;-149;-69;-89
215029;1;5;0;390;250;-778;-4091;-146;-66;-95
215039;1;5;0;390;239;-783;-4069;-153;-73;-104
215049;1;5;0;390;258;-788;-4085;-140;-82;-108
215059;1;5;0;390;270;-778;-4084;-144;-64;-118
215069;1;5;0;390;270;-788;-4072;-142;-80;-131
215079;1;5;0;391;302;-790;-4036;-147;-68;-137
215089;1;5;0;391;294;-763;-4047;-145;-54;-133
215099;1;5;0;391;286;-767;-4067;-141;-60;-106
215109;1;5;0;391;292;-761;-4094;-150;-81;-88
215119;1;5;0;391;308;-766;-4073;-154;-77;-78
215129;1;5;0;391;290;-775;-4066;-155;-62;-72
215139;1;5;0;391;268;-786;-4065;-148;-80;-64
215149;1;5;0;391;274;-797;-4065;-157;-113;-59
215159;1;5;0;391;285;-795;-4071;-160;-105;-72
215169;1;5;0;391;267;-789;-4087;-169;-86;-93
215179;1;5;0;391;269;-776;-4090;-172;-76;-97
215189;1;5;0;391;253;-776;-4063;-171;-70;-107
215199;1;5;0;391;274;-783;-4069;-178;-58;-109
215209;1;5;0;391;265;-795;-4052;-176;-71;-103
215219;1;5;0;391;263;-775;-4067;-166;-91;-94
215229;1;5;0;391;264;-755;-4054;-164;-100;-93
215239;1;5;0;391;286;-768;-4090;-166;-101;-81
215249;1;5;0;391;284;-764;-4085;-180;-97;-71
215259;1;5;0;391;275;-784;-4073;-179;-90;-74
215269;1;5;0;391;286;-784;-4056;-176;-93;-75
215279;1;5;0;391;282;-780;-4042;-178;-109;-59
215289;1;5;0;391;292;-770;-4065;-180;-129;-51
215299;1;5;0;391;289;-776;-4066;-182;-132;-61
215309;1;5;0;391;282;-774;-4074;-174;-122;-70
215319;1;5;0;391;269;-768;-4101;-180;-121;-70
215329;1;5;0;391;244;-763;-4054;-172;-122;-66
215339;1;5;0;391;255;-763;-4063;-155;-112;-55
215349;1;5;0;391;259;-756;-4069;-150;-126;-37
215359;1;5;0;391;264;-767;-4063;-160;-123;-26
215369;1;5;0;391;289;-771;-4069;-160;-123;-25
215379;1;5;0;391;297;-776;-4065;-152;-127;-13
215389;1;5;0;391;287;-761;-4071;-159;-119;-4
215399;1;5;0;391;303;-751;-4081;-149;-117;10
215409;1;5;0;391;303;-757;-4060;-149;-114;15
215419;1;5;0;391;270;-756;-4019;-140;-92;16
215429;1;5;0;391;255;-769;-4029;-127;-104;34
215439;1;5;0;391;238;-760;-4051;-121;-165;72
215449;1;5;0;391;276;-785;-4095;-145;-184;75
215459;1;5;0;391;306;-804;-4085;-135;-122;53
215469;1;5;0;391;229;-787;-4079;-140;-109;35
215479;1;5;0;391;218;-814;-4103;-167;-136;5
215489;1;5;0;391;252;-827;-4061;-151;-155;-41
215499;1;5;0;391;237;-816;-4065;-144;-170;-74
215509;1;5;0;391;250;-779;-4053;-138;-186;-81
215519;1;5;0;391;265;-739;-4067;-131;-202;-57
215529;1;5;0;391;276;-750;-4105;-140;-171;-25
215539;1;5;0;391;266;-760;-4119;-134;-117;-19
215549;1;5;0;391;254;-771;-4075;-133;-77;-19
215559;1;5;0;391;233;-790;-4063;-126;-82;-17
215569;1;5;0;391;258;-768;-4066;-127;-92;-7
215579;1;5;0;392;260;-772;-4092;-134;-54;2
215589;1;5;0;392;240;-782;-4093;-138;-39;5
215599;1;5;0;392;241;-785;-4082;-141;-31;-15
215609;1;5;0;392;244;-789;-4072;-148;-47;-30
215619;1;5;0;392;267;-806;-4074;-162;-67;-40
215629;1;5;0;392;260;-797;-4057;-156;-85;-45
215639;1;5;0;392;255;-796;-4071;-170;-96;-56
215649;1;5;0;392;262;-788;-4058;-163;-107;-59
215659;1;5;0;392;272;-772;-4048;-157;-125;-42
215669;1;5;0;392;276;-761;-4049;-158;-128;-32
215679;1;5;0;392;276;-756;-4029;-149;-148;-15
215689;1;5;0;392;300;-755;-4067;-138;-148;-1
215699;1;5;0;392;272;-756;-4064;-134;-162;19
215709;1;5;0;392;279;-754;-4086;-129;-161;35
215719;1;5;0;392;275;-776;-4082;-139;-156;26
215729;1;5;0;392;257;-772;-4077;-131;-151;24
215739;1;5;0;392;236;-783;-4091;-129;-126;21
215749;1;5;0;392;219;-794;-4089;-147;-131;9
215759;1;5;0;392;229;-794;-4056;-132;-128;-11
215769;1;5;0;392;224;-793;-3998;-118;-142;-38
215779;1;5;0;392;237;-779;-4020;-130;-173;-40
215789;1;5;0;392;269;-778;-4044;-130;-174;-39
215799;1;5;0;392;272;-770;-4072;-124;-163;-24
215809;1;5;0;392;261;-775;-4074;-124;-148;-17
215819;1;5;0;392;255;-767;-4067;-125;-147;4
215829;1;5;0;392;233;-762;-4044;-114;-174;7
215839;1;5;0;392;243;-775;-4060;-115;-177;25
215849;1;5;0;392;234;-774;-4085;-121;-155;38
215859;1;5;0;392;242;-792;-4078;-116;-123;29
215869;1;5;0;392;228;-798;-4100;-133;-106;5
215879;1;5;0;392;231;-797;-4090;-140;-100;-19
215889;1;5;0;392;222;-807;-4052;-141;-88;-38
215899;1;5;0;392;225;-789;-4047;-142;-74;-63
215909;1;5;0;392;226;-774;-4022;-150;-79;-74
215919;1;5;0;392;245;-775;-4032;-150;-88;-64
215929;1;5;0;392;248;-774;-4030;-140;-86;-59
215939;1;5;0;392;263;-775;-4054;-141;-74;-58
215949;1;5;0;392;252;-777;-4059;-148;-62;-61
215959;1;5;0;392;251;-795;-4058;-142;-63;-66
215969;1;5;0;392;257;-786;-4067;-144;-58;-68
215979;1;5;0;392;243;-782;-4076;-155;-61;-70
215989;1;5;0;392;242;-792;-4075;-156;-64;-81
215999;1;5;0;392;232;-788;-4082;-163;-48;-90
216009;1;5;0;392;227;-789;-4064;-154;-44;-101
216019;1;5;0;392;220;-793;-4066;-153;-48;-117
216029;1;5;0;392;237;-786;-4069;-164;-49;-134
216039;1;5;0;392;252;-786;-4073;-172;-37;-143
216049;1;5;0;392;252;-780;-4059;-177;-25;-153
216059;1;5;0;392;248;-771;-4041;-176;-29;-143
216069;1;5;0;392;254;-753;-4051;-170;-37;-132
216079;1;5;0;393;261;-763;-4061;-173;-43;-116
216089;1;5;0;393;261;-778;-4081;-176;-46;-116
216099;1;5;0;393;263;-772;-4087;-174;-45;-124
216109;1;5;0;393;290;-772;-4073;-161;-40;-125
216119;1;5;0;393;255;-789;-4053;-147;-37;-132
216129;1;5;0;393;217;-763;-4041;-131;-64;-114
216139;1;5;0;393;247;-762;-4090;-153;-108;-82
216149;1;5;0;393;312;-805;-4090;-169;-77;-72
216159;1;5;0;393;253;-795;-4060;-157;-19;-79
216169;1;5;0;393;222;-800;-4063;-178;-54;-83
216179;1;5;0;393;243;-792;-4046;-159;-78;-114
216189;1;5;0;393;272;-767;-4019;-135;-91;-135
216199;1;5;0;393;266;-755;-4027;-135;-106;-138
216209;1;5;0;393;302;-736;-4088;-149;-127;-89
216219;1;5;0;393;310;-761;-4095;-163;-92;-61
216229;1;5;0;393;258;-783;-4103;-156;-60;-67
216239;1;5;0;393;235;-777;-4067;-156;-55;-80
216249;1;5;0;393;218;-765;-4056;-138;-71;-85
216259;1;5;0;393;235;-758;-4075;-140;-73;-83
216269;1;5;0;393;273;-779;-4078;-133;-59;-86
216279;1;5;0;393;275;-778;-4077;-139;-19;-87
216289;1;5;0;393;234;-799;-4067;-132;-4;-88
216299;1;5;0;393;236;-790;-4055;-150;-15;-99
216309;1;5;0;393;248;-791;-4056;-160;-30;-118
216319;1;5;0;393;258;-791;-4060;-153;-40;-130
216329;1;5;0;393;282;-793;-4063;-155;-51;-127
216339;1;5;0;393;256;-781;-4074;-167;-56;-126
216349;1;5;0;393;259;-782;-4085;-173;-56;-131
216359;1;5;0;393;271;-779;-4083;-176;-53;-121
216369;1;5;0;393;252;-776;-4081;-166;-69;-126
216379;1;5;0;393;260;-763;-4044;-169;-81;-122
216389;1;5;0;393;274;-757;-4041;-165;-89;-126
216399;1;5;0;393;279;-754;-4052;-163;-99;-111
216409;1;5;0;393;281;-759;-4071;-154;-76;-111
216419;1;5;0;393;277;-754;-4079;-154;-65;-88
216429;1;5;0;393;253;-780;-4081;-154;-47;-94
216439;1;5;0;393;263;-766;-4080;-158;-46;-110
216449;1;5;0;393;281;-786;-4078;-162;-33;-120
216459;1;5;0;393;252;-784;-4043;-157;-33;-135
216469;1;5;0;393;261;-776;-4040;-155;-69;-130
216479;1;5;0;393;281;-768;-4045;-150;-97;-128
216489;1;5;0;393;305;-754;-4074;-150;-80;-116
216499;1;5;0;393;285;-754;-4074;-152;-77;-106
216509;1;5;0;393;259;-777;-4080;-163;-70;-100
216519;1;5;0;393;248;-784;-4064;-145;-81;-98
216529;1;5;0;393;255;-776;-4051;-143;-87;-101
216539;1;5;0;393;280;-754;-4044;-149;-87;-88
216549;1;5;0;393;283;-763;-4044;-148;-97;-70
216559;1;5;0;393;289;-766;-4060;-150;-95;-56
216569;1;5;0;393;291;-776;-4079;-146;-83;-62
216579;1;5;0;394;271;-782;-4069;-148;-66;-79
216589;1;5;0;394;275;-767;-4071;-151;-61;-85
216599;1;5;0;394;270;-770;-4053;-138;-69;-84
216609;1;5;0;394;279;-766;-4074;-137;-70;-85
216619;1;5;0;394;283;-772;-4057;-135;-79;-73
216629;1;5;0;394;293;-778;-4049;-146;-91;-67
216639;1;5;0;394;287;-769;-4048;-143;-94;-58
216649;1;5;0;394;270;-782;-4053;-141;-103;-61
216659;1;5;0;394;283;-778;-4073;-147;-91;-73
216669;1;5;0;394;274;-782;-4088;-135;-93;-91
216679;1;5;0;394;272;-778;-4087;-153;-78;-98
216689;1;5;0;394;273;-774;-4073;-141;-78;-104
216699;1;5;0;394;279;-772;-4091;-157;-74;-103
216709;1;5;0;394;264;-770;-4078;-156;-74;-95
216719;1;5;0;394;276;-771;-4036;-135;-72;-93
216729;1;5;0;394;276;-763;-4033;-134;-63;-86
216739;1;5;0;394;277;-790;-4062;-137;-63;-83
216749;1;5;0;394;285;-771;-4059;-129;-72;-80
216759;1;5;0;394;264;-780;-4072;-142;-84;-88
216769;1;5;0;394;269;-792;-4078;-138;-80;-98
216779;1;5;0;394;282;-786;-4073;-147;-76;-116
216789;1;5;0;394;277;-779;-4068;-148;-66;-129
216799;1;5;0;394;268;-769;-4055;-148;-64;-133
216809;1;5;0;394;278;-785;-4079;-155;-66;-136
216819;1;5;0;394;267;-776;-4056;-157;-60;-145
216829;1;5;0;394;291;-766;-4068;-154;-54;-149
216839;1;5;0;394;302;-770;-4034;-148;-60;-135
216849;1;5;0;394;277;-751;-4022;-147;-78;-113
216859;1;5;0;394;288;-761;-4054;-150;-97;-111
216869;1;5;0;394;304;-757;-4068;-149;-109;-111
216879;1;5;0;394;300;-774;-4081;-128;-83;-100
216889;1;5;0;394;289;-769;-4057;-112;-59;-98
216899;1;5;0;394;241;-744;-4063;-126;-80;-77
216909;1;5;0;394;296;-769;-4113;-136;-113;-48
216919;1;5;0;394;320;-807;-4091;-141;-72;-61
216929;1;5;0;394;277;-784;-4066;-143;-28;-90
216939;1;5;0;394;280;-790;-4059;-152;-54;-95
216949;1;5;0;394;307;-786;-4037;-159;-79;-92
216959;1;5;0;394;281;-788;-4019;-130;-100;-108
216969;1;5;0;394;269;-762;-4027;-112;-134;-109
216979;1;5;0;394;278;-746;-4036;-116;-160;-105
216989;1;5;0;394;285;-745;-4076;-124;-149;-76
216999;1;5;0;394;297;-750;-4086;-129;-96;-66
217009;1;5;0;394;290;-755;-4091;-120;-59;-71
217019;1;5;0;394;286;-765;-4075;-119;-52;-66
217029;1;5;0;394;289;-758;-4053;-120;-53;-48
217039;1;5;0;394;299;-774;-4085;-133;-49;-39
217049;1;5;0;394;282;-779;-4065;-139;-33;-40
217059;1;5;0;394;268;-795;-4076;-134;-50;-52
217069;1;5;0;394;279;-801;-4055;-130;-68;-53
217079;1;5;0;395;291;-783;-4082;-131;-81;-50
217089;1;5;0;395;302;-771;-4086;-141;-82;-41
217099;1;5;0;395;279;-787;-4083;-146;-68;-40
217109;1;5;0;395;282;-805;-4073;-157;-74;-61
217119;1;5;0;395;292;-783;-4051;-163;-72;-84
217129;1;5;0;395;279;-787;-4057;-160;-81;-86
217139;1;5;0;395;288;-778;-4047;-160;-84;-75
217149;1;5;0;395;288;-774;-4073;-162;-86;-71
217159;1;5;0;395;282;-778;-4078;-161;-89;-64
217169;1;5;0;395;285;-767;-4078;-162;-88;-69
217179;1;5;0;395;290;-778;-4077;-165;-84;-66
217189;1;5;0;395;296;-764;-4084;-167;-90;-76
217199;1;5;0;395;291;-762;-4070;-163;-89;-78
217209;1;5;0;395;281;-781;-4070;-163;-72;-77
217219;1;5;0;395;277;-779;-4077;-174;-69;-75
217229;1;5;0;395;292;-799;-4058;-177;-57;-87
217239;1;5;0;395;286;-791;-4030;-169;-58;-97
217249;1;5;0;395;283;-779;-4065;-158;-93;-97
217259;1;5;0;395;316;-766;-4072;-173;-115;-80
217269;1;5;0;395;309;-780;-4074;-172;-110;-89
217279;1;5;0;395;295;-767;-4071;-179;-95;-108
217289;1;5;0;395;286;-777;-4070;-176;-109;-95
217299;1;5;0;395;295;-762;-4063;-159;-142;-72
217309;1;5;0;395;302;-772;-4073;-170;-142;-54
217319;1;5;0;395;294;-776;-4054;-164;-134;-46
217329;1;5;0;395;269;-774;-4063;-163;-130;-54
217339;1;5;0;395;292;-761;-4076;-169;-128;-57
217349;1;5;0;395;296;-769;-4079;-173;-110;-58
217359;1;5;0;395;288;-770;-4063;-177;-110;-58
217369;1;5;0;395;283;-756;-4041;-175;-108;-62
217379;1;5;0;395;292;-762;-4065;-170;-113;-40
217389;1;5;0;395;301;-760;-4063;-164;-127;-18
217399;1;5;0;395;293;-765;-4063;-163;-118;-14
217409;1;5;0;395;280;-788;-4075;-167;-118;-22
217419;1;5;0;395;290;-778;-4070;-170;-118;-24
217429;1;5;0;395;292;-772;-4084;-175;-113;-29
217439;1;5;0;395;286;-767;-4065;-189;-100;-33
217449;1;5;0;395;254;-768;-4073;-174;-104;-40
217459;1;5;0;395;284;-771;-4067;-179;-110;-45
217469;1;5;0;395;270;-772;-4077;-157;-121;-34
217479;1;5;0;395;287;-781;-4069;-165;-106;-25
217489;1;5;0;395;285;-765;-4087;-160;-104;-19
217499;1;5;0;395;276;-772;-4079;-160;-99;-17
217509;1;5;0;395;274;-760;-4068;-145;-94;-20
217519;1;5;0;395;285;-762;-4067;-156;-94;-20
217529;1;5;0;395;292;-769;-4074;-148;-110;-3
217539;1;5;0;395;309;-773;-4072;-147;-112;-1
217549;1;5;0;395;291;-774;-4042;-158;-98;5
217559;1;5;0;395;254;-772;-4050;-148;-108;4
217569;1;5;0;395;267;-771;-4054;-146;-125;-12
217579;1;5;0;396;270;-781;-4067;-140;-139;-28
217589;1;5;0;396;299;-751;-4060;-139;-152;-19
217599;1;5;0;396;311;-751;-4073;-145;-147;-1
217609;1;5;0;396;306;-752;-4088;-138;-134;23
217619;1;5;0;396;275;-762;-4073;-132;-118;50
217629;1;5;0;396;269;-780;-4078;-134;-119;52
217639;1;5;0;396;258;-777;-4096;-128;-147;48
217649;1;5;0;396;283;-775;-4083;-129;-158;35
217659;1;5;0;396;296;-776;-4063;-116;-119;19
217669;1;5;0;396;255;-760;-4033;-108;-122;26
217679;1;5;0;396;252;-760;-4071;-128;-175;53
217689;1;5;0;396;310;-788;-4094;-143;-187;62
217699;1;5;0;396;304;-796;-4079;-131;-112;47
217709;1;5;0;396;240;-772;-4065;-125;-113;38
217719;1;5;0;396;233;-792;-4058;-131;-140;13
217729;1;5;0;396;258;-775;-4025;-131;-173;-8
217739;1;5;0;396;284;-753;-4045;-104;-199;-15
217749;1;5;0;396;266;-736;-4059;-97;-198;4
217759;1;5;0;396;285;-732;-4085;-112;-184;48
217769;1;5;0;396;292;-756;-4115;-102;-156;75
217779;1;5;0;396;280;-762;-4098;-101;-127;70
217789;1;5;0;396;267;-764;-4084;-97;-130;73
217799;1;5;0;396;274;-762;-4074;-96;-157;70
217809;1;5;0;396;271;-768;-4077;-83;-160;71
217819;1;5;0;396;260;-776;-4045;-80;-160;75
217829;1;5;0;396;232;-783;-4060;-69;-163;82
217839;1;5;0;396;233;-780;-4040;-78;-168;73
217849;1;5;0;396;249;-791;-4047;-96;-174;65
217859;1;5;0;396;246;-802;-4059;-108;-170;50
217869;1;5;0;396;258;-793;-4054;-116;-163;33
217879;1;5;0;396;243;-791;-4066;-126;-174;26
217889;1;5;0;396;247;-779;-4081;-146;-182;20
217899;1;5;0;396;252;-779;-4069;-138;-189;18
217909;1;5;0;396;267;-774;-4063;-140;-190;14
217919;1;5;0;396;260;-785;-4058;-132;-191;17
217929;1;5;0;396;261;-768;-4053;-142;-173;13
217939;1;5;0;396;275;-759;-4064;-128;-177;29
217949;1;5;0;396;260;-755;-4056;-124;-175;30
217959;1;5;0;396;251;-751;-4063;-128;-172;42
217969;1;5;0;396;238;-741;-4083;-123;-159;53
217979;1;5;0;396;247;-789;-4079;-107;-137;61
217989;1;5;0;396;239;-797;-4075;-118;-102;52
217999;1;5;0;396;236;-788;-4049;-115;-97;28
218009;1;5;0;396;224;-785;-3993;-117;-117;8
218019;1;5;0;396;234;-774;-4037;-118;-158;4
218029;1;5;0;396;261;-785;-4074;-127;-150;7
218039;1;5;0;396;256;-773;-4085;-132;-114;10
218049;1;5;0;396;234;-781;-4059;-134;-108;19
218059;1;5;0;396;215;-778;-4033;-129;-129;10
218069;1;5;0;396;224;-783;-4027;-126;-141;-14
218079;1;5;0;397;235;-767;-4043;-129;-129;-22
218089;1;5;0;397;241;-787;-4051;-137;-110;-21
218099;1;5;0;397;217;-765;-4050;-137;-74;-20
218109;1;5;0;397;200;-786;-4072;-147;-44;-32
218119;1;5;0;397;214;-796;-4050;-164;-20;-50
218129;1;5;0;397;228;-793;-4042;-151;-18;-62
218139;1;5;0;397;232;-786;-4056;-140;-32;-77
218149;1;5;0;397;237;-781;-4049;-145;-40;-81
218159;1;5;0;397;270;-779;-4057;-157;-21;-84
218169;1;5;0;397;268;-776;-4085;-178;2;-82
218179;1;5;0;397;253;-790;-4063;-197;22;-85
218189;1;5;0;397;245;-790;-4047;-194;27;-96
218199;1;5;0;397;216;-778;-4046;-205;24;-102
218209;1;5;0;397;225;-785;-4065;-206;23;-126
218219;1;5;0;397;234;-780;-4046;-225;36;-141
218229;1;5;0;397;236;-787;-4080;-229;53;-155
218239;1;5;0;397;249;-771;-4081;-234;56;-165
218249;1;5;0;397;261;-776;-4086;-249;71;-166
218259;1;5;0;397;265;-770;-4102;-247;63;-171
218269;1;5;0;397;275;-776;-4090;-241;54;-175
218279;1;5;0;397;250;-769;-4083;-221;37;-170
218289;1;5;0;397;265;-774;-4086;-216;22;-150
218299;1;5;0;397;271;-770;-4080;-186;2;-132
218309;1;5;0;397;269;-775;-4049;-178;-23;-117
218319;1;5;0;397;287;-772;-4057;-172;-58;-115
218329;1;5;0;397;288;-771;-4054;-174;-65;-120
218339;1;5;0;397;290;-766;-4070;-185;-55;-108
218349;1;5;0;397;266;-781;-4050;-188;-47;-110
218359;1;5;0;397;266;-777;-4073;-185;-51;-116
218369;1;5;0;397;272;-756;-4037;-181;-64;-118
218379;1;5;0;397;283;-763;-4068;-170;-59;-112
218389;1;5;0;397;248;-765;-4040;-148;-66;-100
218399;1;5;0;397;241;-767;-4085;-166;-102;-70
218409;1;5;0;397;297;-786;-4107;-175;-108;-63
218419;1;5;0;397;303;-788;-4094;-177;-49;-93
218429;1;5;0;397;245;-789;-4075;-183;-56;-113
218439;1;5;0;397;264;-794;-4066;-177;-74;-141
218449;1;5;0;397;253;-772;-4033;-157;-93;-159
218459;1;5;0;397;243;-757;-4018;-136;-118;-165
218469;1;5;0;397;268;-728;-4022;-126;-142;-131
218479;1;5;0;397;287;-738;-4079;-138;-131;-82
218489;1;5;0;397;304;-754;-4122;-152;-86;-68
218499;1;5;0;397;298;-755;-4095;-154;-39;-80
218509;1;5;0;397;255;-771;-4080;-154;-10;-99
218519;1;5;0;397;258;-755;-4068;-156;-16;-100
218529;1;5;0;397;278;-759;-4042;-148;-42;-95
218539;1;5;0;397;286;-771;-4059;-149;-38;-89
218549;1;5;0;397;270;-768;-4077;-142;-29;-83
218559;1;5;0;397;263;-783;-4079;-148;-14;-92
218569;1;5;0;397;252;-783;-4075;-146;-19;-103
218579;1;5;0;398;288;-764;-4046;-143;-34;-112
218589;1;5;0;398;287;-780;-4045;-144;-50;-115
218599;1;5;0;398;297;-779;-4062;-137;-73;-109
218609;1;5;0;398;299;-774;-4074;-146;-83;-101
218619;1;5;0;398;295;-774;-4064;-147;-86;-100
218629;1;5;0;398;267;-763;-4067;-151;-84;-106
218639;1;5;0;398;266;-766;-4055;-144;-88;-109
218649;1;5;0;398;268;-783;-4050;-159;-103;-117
218659;1;5;0;398;295;-776;-4070;-156;-119;-122
218669;1;5;0;398;281;-759;-4094;-159;-106;-136
218679;1;5;0;398;296;-752;-4087;-157;-100;-145
218689;1;5;0;398;301;-746;-4106;-151;-88;-134
218699;1;5;0;398;299;-759;-4074;-138;-68;-113
218709;1;5;0;398;294;-757;-4063;-139;-75;-111
218719;1;5;0;398;298;-784;-4069;-140;-69;-123
218729;1;5;0;398;264;-765;-4028;-127;-53;-132
218739;1;5;0;398;253;-761;-4051;-131;-72;-130
218749;1;5;0;398;290;-759;-4093;-137;-96;-140
218759;1;5;0;398;316;-763;-4102;-147;-60;-141
218769;1;5;0;398;325;-751;-4082;-137;-37;-139
218779;1;5;0;398;281;-765;-4074;-144;-23;-144
218789;1;5;0;398;249;-779;-4069;-137;-35;-136
218799;1;5;0;398;260;-779;-4067;-138;-54;-135
218809;1;5;0;398;263;-773;-4078;-128;-61;-137
218819;1;5;0;398;273;-758;-4084;-133;-41;-137
218829;1;5;0;398;295;-741;-4069;-137;-24;-124
218839;1;5;0;398;315;-751;-4067;-146;7;-120
218849;1;5;0;398;317;-744;-4053;-136;8;-94
218859;1;5;0;398;317;-767;-4035;-130;-6;-89
218869;1;5;0;398;298;-764;-4050;-132;-21;-83
218879;1;5;0;398;302;-772;-4043;-136;-32;-87
218889;1;5;0;398;302;-765;-4049;-131;-50;-88
218899;1;5;0;398;296;-771;-4071;-130;-53;-86
218909;1;5;0;398;281;-774;-4052;-128;-58;-93
218919;1;5;0;398;285;-776;-4069;-137;-50;-108
218929;1;5;0;398;279;-779;-4062;-145;-44;-123
218939;1;5;0;398;290;-780;-4051;-140;-54;-131
218949;1;5;0;398;283;-771;-4041;-132;-76;-140
218959;1;5;0;398;275;-775;-4069;-132;-94;-150
218969;1;5;0;398;304;-757;-4073;-128;-100;-144
218979;1;5;0;398;295;-752;-4070;-118;-104;-129
218989;1;5;0;398;311;-751;-4065;-120;-91;-121
218999;1;5;0;398;309;-729;-4076;-115;-95;-119
219009;1;5;0;398;331;-762;-4052;-108;-91;-97
219019;1;5;0;398;320;-757;-4067;-106;-84;-98
219029;1;5;0;398;295;-760;-4054;-112;-85;-88
219039;1;5;0;398;285;-763;-4066;-114;-80;-92
219049;1;5;0;398;299;-754;-4074;-122;-68;-90
219059;1;5;0;398;292;-774;-4101;-118;-66;-95
219069;1;5;0;398;291;-786;-4102;-125;-59;-110
219079;1;5;0;399;297;-772;-4093;-127;-42;-105
219089;1;5;0;399;289;-771;-4085;-122;-38;-112
219099;1;5;0;399;282;-766;-4062;-121;-50;-108
219109;1;5;0;399;313;-759;-4081;-128;-55;-95
219119;1;5;0;399;311;-781;-4086;-134;-51;-100
219129;1;5;0;399;311;-778;-4067;-122;-50;-105
219139;1;5;0;399;309;-783;-4059;-132;-52;-111
219149;1;5;0;399;287;-777;-4070;-133;-62;-102
219159;1;5;0;399;299;-775;-4054;-138;-83;-99
219169;1;5;0;399;327;-767;-4057;-146;-80;-96
219179;1;5;0;399;311;-774;-4052;-130;-64;-107
219189;1;5;0;399;293;-772;-4042;-129;-47;-113
219199;1;5;0;399;270;-761;-4083;-135;-77;-94
219209;1;5;0;399;314;-777;-4106;-164;-93;-81
219219;1;5;0;399;351;-788;-4102;-157;-71;-92
219229;1;5;0;399;311;-785;-4086;-159;-47;-118
219239;1;5;0;399;298;-796;-4069;-164;-56;-124
219249;1;5;0;399;310;-773;-4047;-159;-76;-135
219259;1;5;0;399;309;-765;-4039;-153;-85;-141
219269;1;5;0;399;301;-764;-4049;-136;-107;-123
219279;1;5;0;399;325;-744;-4066;-127;-117;-108
219289;1;5;0;399;327;-736;-4048;-131;-116;-85
219299;1;5;0;399;329;-746;-4065;-112;-108;-66
219309;1;5;0;399;323;-742;-4036;-113;-92;-52
219319;1;5;0;399;310;-745;-4078;-122;-87;-36
219329;1;5;0;399;318;-754;-4085;-124;-80;-24
219339;1;5;0;399;306;-778;-4090;-127;-54;-36
219349;1;5;0;399;290;-792;-4070;-139;-30;-59
219359;1;5;0;399;279;-782;-4058;-145;-31;-79
219369;1;5;0;399;301;-781;-4046;-138;-53;-83
219379;1;5;0;399;321;-781;-4039;-138;-86;-81
219389;1;5;0;399;331;-783;-4047;-130;-102;-76
219399;1;5;0;399;325;-774;-4073;-137;-113;-65
219409;1;5;0;399;321;-767;-4069;-150;-111;-71
219419;1;5;0;399;311;-775;-4087;-150;-106;-76
219429;1;5;0;399;291;-775;-4073;-154;-95;-79
219439;1;5;0;399;290;-779;-4082;-153;-83;-82
219449;1;5;0;399;293;-780;-4075;-157;-79;-84
219459;1;5;0;399;290;-776;-4075;-147;-86;-82
219469;1;5;0;399;327;-778;-4088;-156;-69;-79
219479;1;5;0;399;318;-773;-4081;-161;-52;-84
219489;1;5;0;399;316;-795;-4062;-162;-43;-94
219499;1;5;0;399;314;-770;-4070;-159;-50;-98
219509;1;5;0;399;319;-769;-4029;-157;-54;-94
219519;1;5;0;399;337;-767;-4082;-148;-82;-94
219529;1;5;0;399;328;-788;-4052;-150;-67;-106
219539;1;5;0;399;314;-780;-4040;-146;-66;-115
219549;1;5;0;399;293;-779;-4062;-154;-97;-115
219559;1;5;0;399;318;-779;-4075;-170;-104;-119
219569;1;5;0;399;325;-779;-4065;-174;-78;-132
219579;1;5;0;400;302;-770;-4072;-165;-68;-147
219589;1;5;0;400;295;-757;-4047;-160;-79;-136
219599;1;5;0;400;301;-762;-4068;-165;-77;-114
219609;1;5;0;400;314;-765;-4075;-157;-67;-93
219619;1;5;0;400;317;-754;-4068;-141;-42;-81
219629;1;5;0;400;324;-771;-4067;-154;-28;-71
219639;1;5;0;400;312;-762;-4072;-134;-51;-63
219649;1;5;0;400;340;-761;-4095;-140;-56;-68
219659;1;5;0;400;338;-770;-4097;-144;-51;-75
219669;1;5;0;400;337;-768;-4054;-151;-45;-73
219679;1;5;0;400;314;-780;-4048;-151;-55;-73
219689;1;5;0;400;310;-772;-4062;-154;-82;-67
219699;1;5;0;400;317;-778;-4053;-152;-89;-66
219709;1;5;0;400;317;-787;-4047;-150;-88;-69
219719;1;5;0;400;319;-775;-4072;-155;-87;-70
219729;1;5;0;400;334;-772;-4079;-159;-85;-71
219739;1;5;0;400;328;-774;-4086;-155;-95;-71
219749;1;5;0;400;325;-766;-4091;-161;-99;-75
219759;1;5;0;400;347;-762;-4061;-167;-95;-80
219769;1;5;0;400;323;-760;-4072;-171;-98;-78
219779;1;5;0;400;323;-765;-4059;-172;-99;-66
219789;1;5;0;400;324;-759;-4063;-173;-106;-61
219799;1;5;0;400;311;-757;-4059;-167;-115;-54
219809;1;5;0;400;309;-782;-4073;-164;-118;-59
219819;1;5;0;400;307;-773;-4089;-167;-122;-64
219829;1;5;0;400;318;-755;-4080;-175;-116;-60
219839;1;5;0;400;337;-752;-4110;-181;-111;-64
219849;1;5;0;400;346;-764;-4097;-184;-95;-65
219859;1;5;0;400;338;-771;-4080;-188;-95;-68
219869;1;5;0;400;332;-771;-4046;-189;-110;-60
219879;1;5;0;400;313;-775;-4037;-188;-123;-53
219889;1;5;0;400;293;-772;-4047;-181;-156;-36
219899;1;5;0;400;326;-773;-4092;-177;-170;-49
219909;1;5;0;400;344;-755;-4096;-179;-171;-39
219919;1;5;0;400;347;-764;-4103;-182;-159;-40
219929;1;5;0;400;339;-746;-4093;-186;-147;-40
219939;1;5;0;400;310;-765;-4080;-181;-132;-21
219949;1;5;0;400;330;-754;-4067;-191;-120;-10
219959;1;5;0;400;308;-762;-4067;-190;-132;2
219969;1;5;0;400;302;-778;-4063;-178;-122;-6
219979;1;5;0;400;283;-763;-4028;-160;-117;-9
219989;1;5;0;400;271;-752;-4044;-145;-163;6
219999;1;5;0;400;304;-766;-4101;-172;-198;24
220009;1;5;0;400;371;-774;-4117;-179;-166;22
220019;1;5;0;400;323;-768;-4106;-171;-73;0
220029;1;5;0;400;272;-788;-4091;-174;-72;-13
220039;1;5;0;400;290;-779;-4055;-178;-80;-16
220049;1;5;0;400;293;-766;-4004;-170;-101;-52
220059;1;5;0;400;296;-756;-4022;-151;-145;-61
220069;1;5;0;400;313;-730;-4033;-135;-198;-28
220079;1;5;0;401;323;-725;-4083;-133;-213;17
220089;1;5;0;401;349;-744;-4105;-141;-176;40
220099;1;5;0;401;334;-742;-4130;-131;-119;56
220109;1;5;0;401;286;-740;-4101;-126;-86;73
220119;1;5;0;401;291;-751;-4082;-107;-114;88
220129;1;5;0;401;318;-753;-4057;-112;-120;89
220139;1;5;0;401;319;-769;-4057;-112;-117;93
220149;1;5;0;401;310;-766;-4060;-104;-127;91
220159;1;5;0;401;289;-785;-4059;-105;-131;91
220169;1;5;0;401;297;-773;-4054;-111;-143;84
220179;1;5;0;401;304;-776;-4091;-110;-158;78
220189;1;5;0;401;315;-781;-4080;-104;-169;75
220199;1;5;0;401;319;-773;-4076;-118;-193;82
220209;1;5;0;401;313;-762;-4061;-110;-196;104
220219;1;5;0;401;291;-759;-4084;-105;-206;111
220229;1;5;0;401;277;-753;-4069;-95;-216;133
220239;1;5;0;401;291;-767;-4083;-82;-212;154
220249;1;5;0;401;273;-781;-4085;-80;-220;141
220259;1;5;0;401;284;-769;-4048;-70;-218;125
220269;1;5;0;401;287;-774;-4046;-67;-229;118
220279;1;5;0;401;285;-765;-4062;-76;-243;106
220289;1;5;0;401;338;-772;-4089;-82;-211;111
220299;1;5;0;401;287;-763;-4085;-79;-195;98
220309;1;5;0;401;271;-802;-4092;-89;-192;108
220319;1;5;0;401;277;-795;-4054;-77;-188;96
220329;1;5;0;401;244;-798;-4047;-77;-198;90
220339;1;5;0;401;255;-790;-4066;-85;-233;74
220349;1;5;0;401;269;-781;-4056;-95;-232;58
220359;1;5;0;401;258;-799;-4060;-97;-230;56
220369;1;5;0;401;258;-787;-4063;-104;-207;54
220379;1;5;0;401;248;-789;-4046;-101;-213;47
220389;1;5;0;401;253;-780;-4054;-98;-227;39
220399;1;5;0;401;273;-765;-4051;-106;-214;43
220409;1;5;0;401;265;-772;-4062;-97;-190;46
220419;1;5;0;401;261;-776;-4082;-102;-169;52
220429;1;5;0;401;261;-780;-4072;-114;-158;56
220439;1;5;0;401;251;-796;-4060;-109;-153;52
220449;1;5;0;401;253;-789;-4061;-118;-155;23
220459;1;5;0;401;261;-773;-4052;-126;-149;13
220469;1;5;0;401;262;-769;-4053;-125;-162;20
220479;1;5;0;401;267;-790;-4066;-120;-181;19
220489;1;5;0;401;268;-771;-4068;-112;-186;29
220499;1;5;0;401;246;-785;-4054;-111;-184;25
220509;1;5;0;401;259;-784;-4041;-117;-173;22
220519;1;5;0;401;251;-773;-4042;-111;-170;23
220529;1;5;0;401;247;-787;-4040;-116;-130;25
220539;1;5;0;401;244;-787;-4026;-119;-110;25
220549;1;5;0;401;224;-797;-4053;-123;-86;14
220559;1;5;0;401;232;-805;-4044;-130;-60;0
220569;1;5;0;401;249;-795;-4042;-137;-34;-23
220579;1;5;0;402;248;-807;-4056;-151;-17;-48
220589;1;5;0;402;255;-795;-4071;-164;4;-67
220599;1;5;0;402;265;-769;-4100;-178;24;-83
220609;1;5;0;402;269;-794;-4069;-193;54;-87
220619;1;5;0;402;242;-778;-4062;-200;53;-89
220629;1;5;0;402;239;-794;-4043;-208;46;-90
220639;1;5;0;402;240;-796;-4062;-203;25;-97
220649;1;5;0;402;259;-790;-4066;-204;21;-117
220659;1;5;0;402;286;-777;-4088;-221;37;-128
220669;1;5;0;402;280;-784;-4091;-233;51;-139
220679;1;5;0;402;281;-772;-4082;-232;59;-143
220689;1;5;0;402;278;-775;-4074;-237;60;-150
220699;1;5;0;402;269;-771;-4049;-244;42;-155
220709;1;5;0;402;288;-782;-4063;-237;12;-156
220719;1;5;0;402;284;-782;-4056;-221;4;-161
220729;1;5;0;402;291;-760;-4044;-201;7;-156
220739;1;5;0;402;275;-753;-4074;-185;-12;-134
220749;1;5;0;402;286;-751;-4095;-216;-62;-90
220759;1;5;0;402;325;-771;-4106;-213;-16;-79
220769;1;5;0;402;275;-781;-4097;-203;3;-83
220779;1;5;0;402;261;-806;-4089;-206;-25;-96
220789;1;5;0;402;272;-806;-4057;-187;-43;-129
220799;1;5;0;402;263;-774;-4026;-151;-83;-145
220809;1;5;0;402;267;-754;-4013;-140;-126;-138
220819;1;5;0;402;308;-742;-4054;-155;-134;-114
220829;1;5;0;402;318;-756;-4072;-159;-118;-85
220839;1;5;0;402;301;-758;-4064;-160;-93;-79
220849;1;5;0;402;280;-765;-4073;-143;-83;-85
220859;1;5;0;402;250;-777;-4042;-143;-74;-98
220869;1;5;0;402;260;-776;-4053;-154;-79;-104
220879;1;5;0;402;289;-772;-4060;-148;-74;-105
220889;1;5;0;402;283;-758;-4065;-162;-55;-113
220899;1;5;0;402;260;-778;-4094;-160;-29;-117
220909;1;5;0;402;266;-780;-4086;-157;-11;-130
220919;1;5;0;402;267;-784;-4059;-151;-9;-135
220929;1;5;0;402;283;-780;-4054;-150;-14;-138
220939;1;5;0;402;293;-773;-4067;-151;-36;-144
220949;1;5;0;402;304;-766;-4079;-155;-43;-142
220959;1;5;0;402;307;-773;-4067;-151;-49;-139
220969;1;5;0;402;305;-759;-4055;-159;-45;-131
220979;1;5;0;402;281;-770;-4058;-168;-43;-138
220989;1;5;0;402;296;-774;-4046;-160;-42;-144
220999;1;5;0;402;295;-751;-4058;-164;-44;-144
221009;1;5;0;402;298;-756;-4057;-156;-36;-142
221019;1;5;0;402;291;-748;-4063;-142;-42;-142
221029;1;5;0;402;291;-764;-4085;-148;-40;-125
221039;1;5;0;402;314;-766;-4091;-155;-51;-123
221049;1;5;0;402;319;-778;-4095;-157;-39;-138
221059;1;5;0;402;308;-791;-4089;-142;-5;-156
221069;1;5;0;402;286;-779;-4041;-143;-5;-160
221079;1;5;0;403;274;-769;-4026;-149;-52;-144
221089;1;5;0;403;290;-789;-4043;-152;-87;-142
221099;1;5;0;403;330;-774;-4052;-150;-96;-158
221109;1;5;0;403;321;-760;-4052;-144;-91;-165
221119;1;5;0;403;306;-750;-4062;-150;-101;-145
221129;1;5;0;403;297;-741;-4066;-142;-110;-127
221139;1;5;0;403;295;-756;-4075;-147;-111;-126
221149;1;5;0;403;285;-771;-4092;-135;-103;-121
221159;1;5;0;403;279;-758;-4100;-122;-86;-107
221169;1;5;0;403;279;-771;-4100;-132;-54;-111
221179;1;5;0;403;272;-761;-4081;-131;-51;-120
221189;1;5;0;403;294;-771;-4065;-123;-42;-129
221199;1;5;0;403;307;-758;-4056;-133;-39;-131
221209;1;5;0;403;299;-766;-4056;-121;-54;-121
221219;1;5;0;403;312;-772;-4053;-126;-57;-116
221229;1;5;0;403;299;-762;-4050;-121;-54;-115
221239;1;5;0;403;310;-764;-4074;-120;-43;-106
221249;1;5;0;403;311;-768;-4097;-132;-40;-107
221259;1;5;0;403;297;-785;-4079;-128;-25;-102
221269;1;5;0;403;300;-777;-4099;-124;-14;-106
221279;1;5;0;403;295;-773;-4082;-129;-4;-111
221289;1;5;0;403;288;-778;-4077;-134;-11;-128
221299;1;5;0;403;305;-772;-4099;-124;-16;-122
221309;1;5;0;403;316;-773;-4072;-133;-11;-128
221319;1;5;0;403;327;-767;-4048;-139;0;-135
221329;1;5;0;403;345;-766;-4032;-126;-15;-142
221339;1;5;0;403;306;-777;-4027;-145;-44;-139
221349;1;5;0;403;330;-775;-4060;-151;-80;-143
221359;1;5;0;403;337;-777;-4067;-150;-78;-146
221369;1;5;0;403;323;-771;-4082;-159;-61;-151
221379;1;5;0;403;322;-771;-4073;-157;-52;-139
221389;1;5;0;403;312;-764;-4070;-153;-47;-132
221399;1;5;0;403;299;-772;-4082;-154;-48;-136
221409;1;5;0;403;323;-778;-4073;-153;-55;-127
221419;1;5;0;403;312;-763;-4062;-146;-72;-121
221429;1;5;0;403;327;-752;-4056;-140;-97;-111
221439;1;5;0;403;350;-754;-4059;-147;-111;-113
221449;1;5;0;403;346;-750;-4070;-139;-102;-107
221459;1;5;0;403;345;-751;-4101;-141;-83;-97
221469;1;5;0;403;340;-760;-4085;-138;-70;-86
221479;1;5;0;403;316;-770;-4092;-137;-81;-77
221489;1;5;0;403;306;-767;-4069;-138;-82;-77
221499;1;5;0;403;322;-778;-4069;-136;-72;-86
221509;1;5;0;403;299;-764;-4048;-122;-55;-92
221519;1;5;0;403;279;-746;-4055;-117;-76;-72
221529;1;5;0;403;306;-767;-4083;-151;-106;-51
221539;1;5;0;403;344;-780;-4083;-144;-94;-54
221549;1;5;0;403;350;-767;-4100;-133;-49;-81
221559;1;5;0;403;325;-789;-4094;-156;-22;-95
221569;1;5;0;403;322;-799;-4042;-160;-47;-102
221579;1;5;0;404;320;-787;-4031;-138;-78;-111
221589;1;5;0;404;315;-772;-4031;-128;-120;-104
221599;1;5;0;404;316;-751;-4039;-126;-146;-91
221609;1;5;0;404;323;-750;-4054;-132;-153;-79
221619;1;5;0;404;333;-755;-4085;-135;-127;-74
221629;1;5;0;404;329;-761;-4107;-135;-97;-69
221639;1;5;0;404;319;-753;-4099;-144;-74;-80
221649;1;5;0;404;312;-771;-4086;-135;-72;-74
221659;1;5;0;404;322;-766;-4080;-134;-57;-67
221669;1;5;0;404;311;-769;-4064;-132;-45;-63
221679;1;5;0;404;307;-779;-4062;-135;-41;-78
221689;1;5;0;404;322;-773;-4057;-132;-52;-87
221699;1;5;0;404;324;-773;-4077;-134;-64;-92
221709;1;5;0;404;330;-774;-4057;-135;-72;-87
221719;1;5;0;404;340;-789;-4074;-134;-78;-87
221729;1;5;0;404;352;-781;-4084;-145;-77;-88
221739;1;5;0;404;339;-779;-4054;-151;-73;-88
221749;1;5;0;404;326;-777;-4060;-151;-79;-87
221759;1;5;0;404;312;-784;-4066;-151;-96;-84
221769;1;5;0;404;312;-780;-4057;-151;-106;-86
221779;1;5;0;404;319;-768;-4063;-156;-101;-86
221789;1;5;0;404;308;-755;-4083;-161;-92;-87
221799;1;5;0;404;316;-762;-4081;-154;-94;-89
221809;1;5;0;404;336;-762;-4080;-149;-86;-81
221819;1;5;0;404;323;-760;-4083;-149;-82;-79
221829;1;5;0;404;345;-768;-4063;-142;-67;-69
221839;1;5;0;404;326;-777;-4077;-144;-73;-66
221849;1;5;0;404;348;-780;-4062;-150;-78;-77
221859;1;5;0;404;336;-784;-4048;-149;-58;-96
221869;1;5;0;404;308;-769;-4055;-144;-84;-84
221879;1;5;0;404;324;-777;-4069;-142;-123;-64
221889;1;5;0;404;339;-776;-4074;-148;-133;-72
221899;1;5;0;404;327;-783;-4056;-153;-114;-92
221909;1;5;0;404;308;-778;-4052;-153;-104;-100
221919;1;5;0;404;311;-765;-4049;-146;-126;-76
221929;1;5;0;404;321;-769;-4070;-145;-132;-73
221939;1;5;0;404;329;-775;-4075;-154;-98;-71
221949;1;5;0;404;312;-758;-4076;-155;-74;-71
221959;1;5;0;404;303;-759;-4061;-151;-58;-74
221969;1;5;0;404;330;-754;-4073;-149;-54;-72
221979;1;5;0;404;334;-769;-4069;-149;-50;-67
221989;1;5;0;404;328;-769;-4057;-143;-61;-59
221999;1;5;0;404;333;-767;-4061;-141;-57;-62
222009;1;5;0;404;343;-767;-4056;-135;-72;-64
222019;1;5;0;404;326;-788;-4053;-143;-78;-73
222029;1;5;0;404;335;-780;-4079;-155;-85;-79
222039;1;5;0;404;324;-771;-4071;-156;-95;-89
222049;1;5;0;404;320;-777;-4067;-153;-89;-88
222059;1;5;0;404;326;-778;-4052;-159;-73;-87
222069;1;5;0;404;328;-776;-4051;-160;-85;-88
222079;1;5;0;405;337;-770;-4043;-152;-88;-78
222089;1;5;0;405;346;-757;-4051;-162;-90;-83
222099;1;5;0;405;329;-772;-4081;-163;-95;-80
222109;1;5;0;405;330;-767;-4070;-146;-96;-73
222119;1;5;0;405;324;-753;-4073;-149;-84;-69
222129;1;5;0;405;312;-759;-4082;-153;-77;-68
222139;1;5;0;405;335;-776;-4080;-149;-84;-65
222149;1;5;0;405;338;-765;-4077;-140;-87;-64
222159;1;5;0;405;332;-769;-4062;-152;-84;-55
222169;1;5;0;405;345;-767;-4050;-150;-82;-62
222179;1;5;0;405;342;-770;-4058;-139;-88;-62
222189;1;5;0;405;328;-766;-4049;-149;-88;-52
222199;1;5;0;405;342;-767;-4073;-142;-98;-48
222209;1;5;0;405;312;-765;-4069;-137;-106;-54
222219;1;5;0;405;326;-770;-4059;-141;-90;-60
222229;1;5;0;405;324;-766;-4068;-135;-92;-63
222239;1;5;0;405;333;-770;-4079;-148;-82;-59
222249;1;5;0;405;332;-767;-4066;-153;-80;-59
222259;1;5;0;405;334;-779;-4069;-150;-89;-58
222269;1;5;0;405;327;-763;-4067;-150;-101;-56
222279;1;5;0;405;332;-769;-4071;-144;-93;-64
222289;1;5;0;405;318;-768;-4058;-135;-68;-72
222299;1;5;0;405;298;-767;-4059;-129;-77;-53
222309;1;5;0;405;336;-760;-4090;-159;-113;-33
222319;1;5;0;405;378;-786;-4082;-161;-103;-49
222329;1;5;0;405;335;-778;-4064;-148;-54;-79
222339;1;5;0;405;309;-785;-4060;-170;-75;-74
222349;1;5;0;405;330;-794;-4050;-167;-102;-80
222359;1;5;0;405;340;-791;-4025;-148;-113;-96
222369;1;5;0;405;333;-762;-4032;-143;-109;-96
222379;1;5;0;405;316;-752;-4053;-134;-137;-66
222389;1;5;0;405;342;-748;-4051;-127;-154;-44
222399;1;5;0;405;349;-749;-4086;-133;-129;-39
222409;1;5;0;405;323;-773;-4101;-148;-84;-51
222419;1;5;0;405;309;-759;-4086;-153;-61;-62
222429;1;5;0;405;325;-760;-4083;-144;-72;-55
222439;1;5;0;405;335;-768;-4076;-146;-68;-58
222449;1;5;0;405;337;-768;-4091;-145;-51;-63
222459;1;5;0;405;315;-780;-4081;-142;-40;-65
222469;1;5;0;405;319;-780;-4072;-147;-42;-61
222479;1;5;0;405;312;-774;-4055;-154;-61;-68
222489;1;5;0;405;340;-785;-4052;-146;-64;-63
222499;1;5;0;405;344;-777;-4046;-150;-78;-57
222509;1;5;0;405;349;-782;-4064;-147;-86;-60
222519;1;5;0;405;326;-768;-4077;-156;-87;-68
222529;1;5;0;405;319;-772;-4070;-160;-84;-74
222539;1;5;0;405;341;-766;-4064;-153;-88;-77
222549;1;5;0;405;337;-764;-4058;-153;-97;-73
222559;1;5;0;405;328;-769;-4048;-152;-96;-76
222569;1;5;0;405;335;-774;-4049;-152;-96;-79
222579;1;5;0;406;334;-759;-4068;-154;-97;-76
222589;1;5;0;406;350;-747;-4076;-152;-98;-63
222599;1;5;0;406;343;-757;-4083;-147;-87;-66
222609;1;5;0;406;330;-765;-4056;-141;-86;-70
222619;1;5;0;406;334;-767;-4078;-153;-96;-69
222629;1;5;0;406;349;-790;-4051;-161;-79;-78
222639;1;5;0;406;318;-789;-4043;-146;-72;-90
222649;1;5;0;406;311;-780;-4051;-136;-90;-82
222659;1;5;0;406;333;-765;-4084;-146;-108;-60
222669;1;5;0;406;346;-756;-4080;-153;-102;-60
222679;1;5;0;406;344;-779;-4081;-146;-96;-78
222689;1;5;0;406;321;-773;-4058;-155;-92;-85
222699;1;5;0;406;329;-765;-4058;-153;-103;-78
222709;1;5;0;406;345;-758;-4075;-150;-115;-62
222719;1;5;0;406;327;-770;-4061;-149;-100;-45
222729;1;5;0;406;318;-776;-4077;-134;-93;-43
222739;1;5;0;406;320;-778;-4067;-144;-87;-57
222749;1;5;0;406;329;-765;-4074;-157;-83;-69
222759;1;5;0;406;338;-755;-4069;-150;-79;-71
222769;1;5;0;406;339;-770;-4073;-159;-78;-69
222779;1;5;0;406;337;-768;-4063;-154;-80;-64
222789;1;5;0;406;342;-770;-4054;-145;-92;-60
222799;1;5;0;406;332;-774;-4072;-155;-94;-59
222809;1;5;0;406;334;-780;-4061;-148;-90;-62
222819;1;5;0;406;339;-778;-4055;-158;-89;-61
222829;1;5;0;406;333;-774;-4061;-158;-94;-67
222839;1;5;0;406;345;-771;-4071;-155;-102;-66
222849;1;5;0;406;329;-760;-4083;-155;-110;-58
222859;1;5;0;406;325;-768;-4083;-163;-108;-63
222869;1;5;0;406;342;-761;-4084;-173;-96;-73
222879;1;5;0;406;327;-767;-4094;-170;-105;-76
222889;1;5;0;406;332;-781;-4084;-173;-101;-78
222899;1;5;0;406;338;-770;-4076;-171;-111;-82
222909;1;5;0;406;350;-769;-4063;-175;-116;-77
222919;1;5;0;406;336;-766;-4055;-166;-113;-74
222929;1;5;0;406;348;-779;-4050;-163;-113;-71
222939;1;5;0;406;332;-769;-4073;-173;-109;-72
222949;1;5;0;406;341;-757;-4071;-179;-98;-71
222959;1;5;0;406;340;-771;-4071;-173;-121;-50
222969;1;5;0;406;333;-768;-4069;-176;-127;-59
222979;1;5;0;406;352;-769;-4089;-172;-123;-58
222989;1;5;0;406;333;-769;-4078;-185;-124;-52
222999;1;5;0;406;342;-779;-4073;-187;-117;-51
223009;1;5;0;406;346;-768;-4058;-186;-112;-49
223019;1;5;0;406;327;-757;-4057;-179;-114;-37
223029;1;5;0;406;306;-768;-4047;-172;-129;-31
223039;1;5;0;406;320;-765;-4064;-171;-131;-28
223049;1;5;0;406;324;-758;-4080;-174;-134;-21
223059;1;5;0;406;336;-767;-4080;-179;-139;-22
223069;1;5;0;406;356;-750;-4077;-173;-134;-19
223079;1;5;0;407;336;-768;-4083;-184;-126;-14
223089;1;5;0;407;336;-763;-4071;-182;-134;-19
223099;1;5;0;407;340;-749;-4054;-176;-134;-17
223109;1;5;0;407;337;-757;-4064;-162;-122;-21
223119;1;5;0;407;301;-743;-4040;-143;-99;-11
223129;1;5;0;407;280;-738;-4047;-146;-138;16
223139;1;5;0;407;325;-766;-4101;-165;-195;44
223149;1;5;0;407;386;-773;-4083;-154;-161;39
223159;1;5;0;407;341;-769;-4087;-154;-109;33
223169;1;5;0;407;306;-764;-4085;-161;-123;31
223179;1;5;0;407;305;-767;-4070;-158;-137;13
223189;1;5;0;407;302;-765;-4034;-142;-165;-2
223199;1;5;0;407;304;-754;-4035;-113;-183;5
223209;1;5;0;407;315;-737;-4037;-122;-204;33
223219;1;5;0;407;343;-730;-4086;-130;-210;63
223229;1;5;0;407;362;-745;-4119;-115;-176;74
223239;1;5;0;407;354;-740;-4117;-116;-128;80
223249;1;5;0;407;328;-742;-4102;-105;-119;88
223259;1;5;0;407;336;-736;-4094;-100;-128;102
223269;1;5;0;407;332;-755;-4065;-99;-128;118
223279;1;5;0;407;307;-779;-4052;-90;-118;118
223289;1;5;0;407;281;-793;-4055;-92;-122;103
223299;1;5;0;407;261;-805;-4019;-92;-134;85
223309;1;5;0;407;281;-798;-4029;-97;-156;61
223319;1;5;0;407;308;-791;-4023;-109;-183;50
223329;1;5;0;407;325;-768;-4058;-123;-184;44
223339;1;5;0;407;322;-775;-4084;-119;-181;57
223349;1;5;0;407;323;-768;-4088;-127;-167;61
223359;1;5;0;407;308;-776;-4084;-129;-163;57
223369;1;5;0;407;304;-763;-4064;-125;-183;52
223379;1;5;0;407;299;-756;-4080;-129;-190;49
223389;1;5;0;407;297;-770;-4065;-123;-213;47
223399;1;5;0;407;300;-772;-4079;-108;-195;66
223409;1;5;0;407;303;-746;-4073;-111;-215;57
223419;1;5;0;407;292;-763;-4067;-97;-216;65
223429;1;5;0;407;303;-753;-4086;-89;-214;73
223439;1;5;0;407;298;-760;-4073;-94;-185;74
223449;1;5;0;407;276;-779;-4074;-89;-172;73
223459;1;5;0;407;283;-788;-4044;-99;-164;62
223469;1;5;0;407;284;-771;-4049;-106;-164;56
223479;1;5;0;407;284;-759;-4050;-100;-192;57
223489;1;5;0;407;297;-772;-4069;-105;-195;58
223499;1;5;0;407;300;-771;-4076;-103;-189;66
223509;1;5;0;407;274;-775;-4074;-101;-198;68
223519;1;5;0;407;279;-776;-4050;-99;-216;72
223529;1;5;0;407;288;-763;-4044;-83;-227;62
223539;1;5;0;407;290;-762;-4067;-89;-241;57
223549;1;5;0;407;301;-772;-4097;-92;-218;70
223559;1;5;0;407;283;-773;-4076;-90;-185;63
223569;1;5;0;407;261;-778;-4047;-93;-168;56
223579;1;5;0;408;243;-781;-4028;-101;-170;55
223589;1;5;0;408;250;-784;-4033;-106;-180;52
223599;1;5;0;408;276;-783;-4046;-108;-191;35
223609;1;5;0;408;282;-782;-4076;-113;-177;22
223619;1;5;0;408;276;-784;-4065;-121;-177;27
223629;1;5;0;408;276;-771;-4055;-120;-176;34
223639;1;5;0;408;274;-788;-4035;-117;-183;32
223649;1;5;0;408;271;-790;-4040;-118;-180;21
223659;1;5;0;408;270;-785;-4041;-125;-178;8
223669;1;5;0;408;254;-774;-4043;-117;-178;5
223679;1;5;0;408;257;-775;-4036;-122;-180;11
223689;1;5;0;408;254;-783;-4052;-122;-157;12
223699;1;5;0;408;253;-798;-4056;-127;-132;9
223709;1;5;0;408;239;-792;-4049;-134;-100;-3
223719;1;5;0;408;241;-780;-4048;-135;-88;-11
223729;1;5;0;408;250;-781;-4036;-147;-64;-27
223739;1;5;0;408;261;-797;-4027;-150;-56;-46
223749;1;5;0;408;262;-792;-4029;-147;-54;-65
223759;1;5;0;408;245;-787;-4065;-161;-47;-84
223769;1;5;0;408;248;-770;-4078;-160;-39;-88
223779;1;5;0;408;250;-769;-4085;-162;-19;-85
223789;1;5;0;408;253;-771;-4065;-163;-4;-86
223799;1;5;0;408;250;-774;-4071;-165;0;-94
223809;1;5;0;408;257;-787;-4064;-162;5;-99
223819;1;5;0;408;271;-768;-4061;-163;12;-100
223829;1;5;0;408;278;-775;-4065;-173;19;-100
223839;1;5;0;408;286;-784;-4061;-185;28;-108
223849;1;5;0;408;276;-777;-4062;-192;35;-118
223859;1;5;0;408;256;-784;-4062;-182;44;-122
223869;1;5;0;408;221;-781;-4066;-173;31;-113
223879;1;5;0;408;267;-773;-4111;-204;-15;-96
223889;1;5;0;408;306;-813;-4117;-225;16;-104
223899;1;5;0;408;287;-799;-4087;-218;85;-129
223909;1;5;0;408;273;-795;-4081;-235;65;-136
223919;1;5;0;408;281;-802;-4068;-229;34;-163
223929;1;5;0;408;302;-780;-4041;-209;9;-187
223939;1;5;0;408;293;-750;-4029;-193;-28;-182
223949;1;5;0;408;288;-745;-4042;-181;-72;-144
223959;1;5;0;408;309;-741;-4088;-170;-89;-109
223969;1;5;0;408;331;-760;-4081;-170;-68;-83
223979;1;5;0;408;303;-767;-4076;-170;-43;-73
223989;1;5;0;408;299;-762;-4068;-155;-49;-64
223999;1;5;0;408;290;-774;-4077;-168;-51;-71
224009;1;5;0;408;305;-768;-4074;-175;-48;-74
224019;1;5;0;408;294;-775;-4074;-170;-37;-82
224029;1;5;0;408;268;-795;-4047;-179;-21;-93
224039;1;5;0;408;255;-799;-4062;-177;-26;-101
224049;1;5;0;408;272;-802;-4060;-178;-35;-107
224059;1;5;0;408;281;-783;-4050;-171;-43;-109
224069;1;5;0;408;291;-770;-4080;-183;-44;-114
