timestamp;subject_id;activity;label;seq;ax;ay;az;gx;gy;gz
385591;1;6;0;625;325;3848;-1513;-233;-224;16
385601;1;6;0;625;302;3873;-1480;-260;-226;-33
385611;1;6;0;625;288;3872;-1472;-225;-245;-70
385621;1;6;0;625;258;3883;-1466;-155;-260;-58
385631;1;6;0;625;253;3882;-1428;-91;-242;-29
385641;1;6;0;625;267;3872;-1424;-43;-217;1
385651;1;6;0;625;286;3857;-1452;-41;-195;12
385661;1;6;0;625;327;3830;-1489;-57;-169;-5
385671;1;6;0;625;392;3825;-1523;-84;-124;-97
385681;1;6;0;625;338;3791;-1535;-116;-97;-207
385691;1;6;0;625;261;3806;-1515;-117;-141;-279
385701;1;6;0;625;262;3881;-1551;-104;-167;-319
385711;1;6;0;625;305;3974;-1535;-60;-102;-278
385721;1;6;0;625;304;4061;-1531;-19;-24;-202
385731;1;6;0;625;266;4027;-1499;30;-7;-103
385741;1;6;0;625;226;3978;-1412;57;-58;-9
385751;1;6;0;625;272;3873;-1357;54;-129;23
385761;1;6;0;625;294;3757;-1333;32;-171;-23
385771;1;6;0;625;297;3721;-1318;-3;-187;-145
385781;1;6;0;625;225;3744;-1282;-44;-231;-252
385791;1;6;0;625;135;3822;-1249;-54;-323;-272
385801;1;6;0;625;178;3886;-1227;-8;-408;-207
385811;1;6;0;625;301;3898;-1270;69;-344;-141
385821;1;6;0;625;383;3833;-1356;147;-209;-113
385831;1;6;0;625;316;3706;-1448;207;-151;-101
385841;1;6;0;625;268;3655;-1529;223;-221;-104
385851;1;6;0;625;264;3681;-1547;160;-298;-115
385861;1;6;0;625;261;3726;-1579;88;-330;-96
385871;1;6;0;625;270;3781;-1598;18;-320;-89
385881;1;6;0;625;266;3770;-1550;-30;-281;-128
385891;1;6;0;625;277;3809;-1549;-35;-240;-216
385901;1;6;0;625;286;3850;-1529;-18;-210;-304
385911;1;6;0;625;322;3890;-1553;-7;-111;-377
385921;1;6;0;625;366;3927;-1599;6;12;-405
385931;1;6;0;625;339;3914;-1587;41;143;-394
385941;1;6;0;625;257;3888;-1556;71;175;-340
385951;1;6;0;625;212;3884;-1527;98;159;-277
385961;1;6;0;625;214;3834;-1514;97;154;-272
385971;1;6;0;625;274;3802;-1486;117;183;-375
385981;1;6;0;625;292;3775;-1497;118;226;-522
385991;1;6;0;625;303;3770;-1521;147;270;-681
386001;1;6;0;625;324;3824;-1545;149;327;-790
386011;1;6;0;625;266;3812;-1551;119;388;-762
386021;1;6;0;625;192;3794;-1561;127;380;-630
386031;1;6;0;625;175;3770;-1582;121;340;-462
386041;1;6;0;625;146;3779;-1554;98;284;-338
386051;1;6;0;625;128;3836;-1542;65;221;-286
386061;1;6;0;625;163;3883;-1536;37;196;-274
386071;1;6;0;625;172;3882;-1549;37;245;-301
386081;1;6;0;625;192;3882;-1536;52;322;-338
386091;1;6;0;626;165;3872;-1538;115;360;-343
386101;1;6;0;626;104;3888;-1473;192;338;-305
386111;1;6;0;626;112;3925;-1410;267;283;-243
386121;1;6;0;626;159;3905;-1338;334;208;-181
386131;1;6;0;626;242;3879;-1332;392;135;-170
386141;1;6;0;626;328;3794;-1448;403;106;-198
386151;1;6;0;626;298;3734;-1581;390;80;-250
386161;1;6;0;626;251;3697;-1665;367;41;-309
386171;1;6;0;626;156;3684;-1684;328;16;-339
386181;1;6;0;626;54;3725;-1657;296;-9;-313
386191;1;6;0;626;29;3788;-1611;248;-14;-241
386201;1;6;0;626;84;3841;-1621;216;25;-133
386211;1;6;0;626;158;3900;-1614;232;96;-21
386221;1;6;0;626;216;3931;-1590;291;157;75
386231;1;6;0;626;285;3935;-1583;330;222;93
386241;1;6;0;626;364;3851;-1643;343;325;21
386251;1;6;0;626;372;3747;-1696;349;372;-88
386261;1;6;0;626;267;3663;-1696;360;317;-201
386271;1;6;0;626;88;3694;-1670;382;136;-219
386281;1;6;0;626;25;3784;-1620;372;-61;-165
386291;1;6;0;626;40;3893;-1585;343;-96;-81
386301;1;6;0;626;95;3938;-1606;333;-42;2
386311;1;6;0;626;199;3952;-1621;392;20;37
386321;1;6;0;626;246;3928;-1654;457;68;17
386331;1;6;0;626;279;3881;-1665;504;57;-52
386341;1;6;0;626;217;3843;-1683;552;-6;-79
386351;1;6;0;626;168;3804;-1695;573;-72;-40
386361;1;6;0;626;167;3798;-1736;572;-121;39
386371;1;6;0;626;178;3815;-1737;553;-145;80
386381;1;6;0;626;187;3836;-1701;543;-176;70
386391;1;6;0;626;189;3857;-1621;553;-227;41
386401;1;6;0;626;178;3858;-1589;573;-293;23
386411;1;6;0;626;209;3853;-1539;614;-406;-3
386421;1;6;0;626;295;3810;-1558;624;-462;-61
386431;1;6;0;626;288;3734;-1603;623;-506;-101
386441;1;6;0;626;226;3680;-1667;623;-596;-77
386451;1;6;0;626;161;3662;-1704;614;-730;-12
386461;1;6;0;626;123;3703;-1783;585;-811;102
386471;1;6;0;626;133;3780;-1760;543;-830;236
386481;1;6;0;626;141;3805;-1707;534;-831;356
386491;1;6;0;626;143;3805;-1662;554;-873;417
386501;1;6;0;626;151;3760;-1624;608;-946;433
386511;1;6;0;626;195;3708;-1639;656;-1043;407
386521;1;6;0;626;219;3660;-1697;691;-1131;370
386531;1;6;0;626;210;3638;-1798;712;-1171;321
386541;1;6;0;626;184;3601;-1877;722;-1195;305
386551;1;6;0;626;176;3625;-1933;696;-1132;320
386561;1;6;0;626;193;3580;-1919;675;-1012;355
386571;1;6;0;626;169;3527;-1924;657;-925;358
386581;1;6;0;626;117;3556;-1880;679;-960;388
386591;1;6;0;627;113;3634;-1837;712;-1080;405
386601;1;6;0;627;151;3721;-1823;707;-1153;388
386611;1;6;0;627;217;3756;-1838;707;-1143;358
386621;1;6;0;627;245;3707;-1887;728;-1102;310
386631;1;6;0;627;199;3636;-1898;787;-1106;291
386641;1;6;0;627;160;3614;-1900;844;-1154;331
386651;1;6;0;627;126;3614;-1884;888;-1195;377
386661;1;6;0;627;147;3642;-1875;884;-1214;394
386671;1;6;0;627;178;3614;-1856;858;-1238;413
386681;1;6;0;627;159;3535;-1877;837;-1329;432
386691;1;6;0;627;153;3488;-1877;789;-1439;444
386701;1;6;0;627;98;3490;-1890;739;-1570;459
386711;1;6;0;627;44;3536;-1907;674;-1685;517
386721;1;6;0;627;68;3560;-1940;643;-1700;583
386731;1;6;0;627;158;3555;-2020;635;-1599;584
386741;1;6;0;627;226;3594;-2065;632;-1462;549
386751;1;6;0;627;192;3602;-2052;687;-1437;576
386761;1;6;0;627;180;3652;-1961;761;-1518;651
386771;1;6;0;627;172;3685;-1886;829;-1632;740
386781;1;6;0;627;169;3705;-1840;857;-1706;826
386791;1;6;0;627;188;3681;-1820;849;-1783;903
386801;1;6;0;627;227;3634;-1846;814;-1884;939
386811;1;6;0;627;266;3550;-1883;774;-2001;926
386821;1;6;0;627;210;3453;-1899;719;-2146;924
386831;1;6;0;627;180;3354;-1940;655;-2326;903
386841;1;6;0;627;176;3367;-2037;587;-2465;840
386851;1;6;0;627;157;3427;-2115;467;-2470;823
386861;1;6;0;627;178;3511;-2184;367;-2382;828
386871;1;6;0;627;211;3585;-2251;324;-2186;891
386881;1;6;0;627;214;3613;-2239;324;-1979;990
386891;1;6;0;627;233;3635;-2178;406;-1830;1092
386901;1;6;0;627;220;3668;-2086;490;-1763;1220
386911;1;6;0;627;233;3714;-2019;553;-1734;1272
386921;1;6;0;627;252;3719;-1947;582;-1768;1289
386931;1;6;0;627;250;3654;-1909;551;-1816;1265
386941;1;6;0;627;196;3601;-1867;470;-1937;1212
386951;1;6;0;627;137;3598;-1833;362;-2158;1194
386961;1;6;0;627;92;3585;-1810;263;-2371;1234
386971;1;6;0;627;141;3619;-1824;210;-2525;1286
386981;1;6;0;627;249;3624;-1928;197;-2587;1344
386991;1;6;0;627;318;3576;-2001;215;-2536;1330
387001;1;6;0;627;361;3468;-2107;230;-2417;1202
387011;1;6;0;627;326;3363;-2195;191;-2312;959
387021;1;6;0;627;185;3290;-2260;107;-2301;746
387031;1;6;0;627;34;3244;-2268;-1;-2375;660
387041;1;6;0;627;-79;3258;-2267;-99;-2481;749
387051;1;6;0;627;-124;3336;-2262;-127;-2530;975
387061;1;6;0;627;-108;3429;-2207;-52;-2507;1253
387071;1;6;0;627;-83;3502;-2155;69;-2516;1446
387081;1;6;0;627;1;3545;-2164;231;-2544;1522
387091;1;6;0;628;185;3511;-2284;371;-2456;1424
387101;1;6;0;628;300;3442;-2442;437;-2292;1193
387111;1;6;0;628;348;3296;-2634;427;-2093;825
387121;1;6;0;628;225;3170;-2691;348;-1990;526
387131;1;6;0;628;-3;3115;-2598;238;-2086;444
387141;1;6;0;628;-153;3264;-2374;161;-2291;643
387151;1;6;0;628;-149;3454;-2151;112;-2414;950
387161;1;6;0;628;-25;3526;-1996;107;-2507;1276
387171;1;6;0;628;159;3571;-2018;184;-2554;1489
387181;1;6;0;628;246;3517;-2115;212;-2623;1514
387191;1;6;0;628;248;3490;-2225;192;-2745;1390
387201;1;6;0;628;204;3457;-2271;98;-2924;1254
387211;1;6;0;628;144;3488;-2293;10;-3061;1231
387221;1;6;0;628;131;3487;-2318;-43;-3141;1370
387231;1;6;0;628;126;3482;-2312;-34;-3151;1591
387241;1;6;0;628;89;3479;-2291;-31;-3157;1737
387251;1;6;0;628;76;3543;-2251;-41;-3206;1797
387261;1;6;0;628;73;3628;-2175;-85;-3298;1818
387271;1;6;0;628;87;3644;-2088;-143;-3451;1869
387281;1;6;0;628;149;3650;-2022;-172;-3661;1996
387291;1;6;0;628;217;3546;-2058;-199;-3876;2148
387301;1;6;0;628;250;3445;-2114;-245;-4074;2226
387311;1;6;0;628;223;3390;-2143;-306;-4244;2241
387321;1;6;0;628;167;3373;-2126;-410;-4388;2236
387331;1;6;0;628;188;3460;-2025;-563;-4523;2232
387341;1;6;0;628;216;3514;-2008;-693;-4652;2262
387351;1;6;0;628;240;3562;-2023;-773;-4803;2321
387361;1;6;0;628;300;3548;-2099;-790;-4954;2339
387371;1;6;0;628;244;3545;-2162;-754;-5150;2334
387381;1;6;0;628;143;3490;-2177;-678;-5367;2306
387391;1;6;0;628;65;3405;-2172;-601;-5550;2238
387401;1;6;0;628;5;3375;-2183;-498;-5686;2202
387411;1;6;0;628;8;3384;-2174;-322;-5767;2295
387421;1;6;0;628;26;3374;-2188;-185;-5738;2398
387431;1;6;0;628;44;3389;-2252;-22;-5611;2535
387441;1;6;0;628;69;3419;-2327;73;-5417;2615
387451;1;6;0;628;2;3417;-2356;97;-5261;2659
387461;1;6;0;628;-96;3415;-2347;48;-5234;2714
387471;1;6;0;628;-146;3428;-2285;45;-5282;2795
387481;1;6;0;628;-107;3442;-2271;23;-5363;2887
387491;1;6;0;628;-81;3372;-2315;-24;-5445;2981
387501;1;6;0;628;-19;3307;-2416;-58;-5518;3014
387511;1;6;0;628;4;3289;-2523;-111;-5549;2951
387521;1;6;0;628;-8;3354;-2579;-144;-5538;2831
387531;1;6;0;628;-24;3463;-2588;-166;-5496;2739
387541;1;6;0;628;-74;3576;-2560;-167;-5397;2761
387551;1;6;0;628;-119;3653;-2483;-153;-5252;2855
387561;1;6;0;628;-86;3680;-2474;-140;-5040;2913
387571;1;6;0;628;-74;3678;-2429;-137;-4798;2869
387581;1;6;0;628;-75;3722;-2395;-161;-4603;2730
387591;1;6;0;629;-119;3827;-2267;-190;-4477;2536
387601;1;6;0;629;-132;4082;-2143;-244;-4483;2345
387611;1;6;0;629;-136;4175;-2011;-266;-4568;2210
387621;1;6;0;629;-133;4120;-1928;-186;-4695;2159
387631;1;6;0;629;-103;3958;-1857;-40;-4816;2260
387641;1;6;0;629;-237;3722;-1697;66;-4994;2477
387651;1;6;0;629;-410;3482;-1614;143;-5342;2658
387661;1;6;0;629;-421;3362;-1688;198;-5579;2822
387671;1;6;0;629;-332;3279;-1794;249;-5687;2919
387681;1;6;0;629;-167;3237;-2001;279;-5663;2857
387691;1;6;0;629;-75;3246;-2158;262;-5598;2630
387701;1;6;0;629;-104;3274;-2285;206;-5569;2248
387711;1;6;0;629;-234;3393;-2309;92;-5602;1930
387721;1;6;0;629;-374;3531;-2158;-51;-5617;1749
387731;1;6;0;629;-447;3686;-1976;-162;-5544;1810
387741;1;6;0;629;-480;3803;-1831;-255;-5336;2006
387751;1;6;0;629;-415;3871;-1690;-312;-5048;2272
387761;1;6;0;629;-249;3862;-1665;-323;-4819;2417
387771;1;6;0;629;-69;3791;-1753;-218;-4541;2467
387781;1;6;0;629;124;3710;-1845;-50;-4272;2392
387791;1;6;0;629;230;3623;-1991;136;-3991;2225
387801;1;6;0;629;234;3501;-2028;261;-3832;2038
387811;1;6;0;629;164;3434;-1993;326;-3802;1958
387821;1;6;0;629;102;3445;-1997;255;-3855;2037
387831;1;6;0;629;79;3447;-1998;144;-3845;2122
387841;1;6;0;629;81;3424;-2009;5;-3829;2171
387851;1;6;0;629;39;3388;-1996;-106;-3851;2090
387861;1;6;0;629;-35;3486;-1922;-192;-3833;1954
387871;1;6;0;629;-117;3551;-1772;-267;-3808;1875
387881;1;6;0;629;-140;3590;-1609;-304;-3760;1828
387891;1;6;0;629;-68;3588;-1555;-306;-3649;1837
387901;1;6;0;629;16;3534;-1616;-300;-3582;1822
387911;1;6;0;629;-2;3501;-1677;-284;-3650;1788
387921;1;6;0;629;-41;3562;-1676;-307;-3824;1831
387931;1;6;0;629;19;3683;-1663;-276;-3975;1938
387941;1;6;0;629;155;3764;-1732;-253;-3980;2047
387951;1;6;0;629;294;3735;-1818;-205;-3889;2105
387961;1;6;0;629;339;3690;-1962;-153;-3804;2083
387971;1;6;0;629;328;3612;-1944;-151;-3816;2031
387981;1;6;0;629;261;3598;-1996;-188;-3833;1956
387991;1;6;0;629;235;3606;-1936;-267;-3841;1869
388001;1;6;0;629;241;3592;-1919;-362;-3749;1751
388011;1;6;0;629;247;3565;-1908;-458;-3674;1647
388021;1;6;0;629;247;3545;-1892;-515;-3625;1566
388031;1;6;0;629;273;3555;-1842;-520;-3586;1526
388041;1;6;0;629;345;3567;-1783;-540;-3503;1498
388051;1;6;0;629;406;3571;-1814;-548;-3410;1504
388061;1;6;0;629;434;3547;-1847;-539;-3338;1574
388071;1;6;0;629;384;3500;-1864;-494;-3339;1656
388081;1;6;0;629;365;3484;-1925;-417;-3357;1652
388091;1;6;0;630;351;3554;-1953;-370;-3328;1529
388101;1;6;0;630;299;3652;-1946;-329;-3300;1391
388111;1;6;0;630;250;3688;-1865;-227;-3226;1335
388121;1;6;0;630;217;3640;-1859;-71;-3162;1409
388131;1;6;0;630;103;3590;-1850;105;-3154;1555
388141;1;6;0;630;-6;3551;-1856;245;-3169;1721
388151;1;6;0;630;29;3587;-1849;335;-3182;1894
388161;1;6;0;630;117;3665;-1786;335;-3079;2033
388171;1;6;0;630;310;3749;-1692;287;-2862;2109
388181;1;6;0;630;491;3791;-1642;296;-2597;2061
388191;1;6;0;630;594;3769;-1654;283;-2502;2025
388201;1;6;0;630;613;3711;-1666;340;-2560;2077
388211;1;6;0;630;519;3608;-1661;409;-2866;2236
388221;1;6;0;630;459;3551;-1722;400;-3213;2365
388231;1;6;0;630;414;3513;-1749;325;-3475;2373
388241;1;6;0;630;383;3536;-1799;164;-3626;2297
388251;1;6;0;630;363;3597;-1868;41;-3655;2220
388261;1;6;0;630;363;3703;-1898;-14;-3560;2233
388271;1;6;0;630;423;3823;-1969;13;-3321;2311
388281;1;6;0;630;488;3974;-2020;135;-3006;2386
388291;1;6;0;630;523;4159;-1982;252;-2777;2437
388301;1;6;0;630;484;4403;-1831;293;-2690;2424
388311;1;6;0;630;431;4590;-1588;280;-2766;2454
388321;1;6;0;630;401;4665;-1448;262;-2985;2552
388331;1;6;0;630;343;4590;-1460;275;-3314;2564
388341;1;6;0;630;197;4456;-1596;311;-3709;2463
388351;1;6;0;630;67;4239;-1679;409;-4064;2311
388361;1;6;0;630;17;3967;-1781;595;-4174;2172
388371;1;6;0;630;84;3682;-1893;803;-3887;2035
388381;1;6;0;630;109;3396;-1979;964;-3455;1763
388391;1;6;0;630;16;3222;-2091;1036;-2979;1285
388401;1;6;0;630;-202;3162;-1950;882;-2800;928
388411;1;6;0;630;-397;3160;-1803;689;-2843;823
388421;1;6;0;630;-564;3226;-1615;490;-2882;1057
388431;1;6;0;630;-652;3306;-1432;183;-3062;1467
388441;1;6;0;630;-701;3442;-1439;-16;-3253;1875
388451;1;6;0;630;-692;3650;-1432;-8;-3513;2186
388461;1;6;0;630;-605;3927;-1544;285;-3943;2347
388471;1;6;0;630;-470;4178;-1703;563;-4154;2382
388481;1;6;0;630;-280;4326;-1861;1030;-4336;2384
388491;1;6;0;630;-98;4123;-1849;1517;-4417;2346
388501;1;6;0;630;-39;3815;-2006;1847;-4398;2194
388511;1;6;0;630;-68;3580;-2268;2006;-4303;2052
388521;1;6;0;630;-102;3448;-2364;1931;-4044;1930
388531;1;6;0;630;-157;3433;-2408;1746;-3742;1867
388541;1;6;0;630;-287;3448;-2403;1545;-3502;1868
388551;1;6;0;630;-322;3488;-2328;1331;-3371;1927
388561;1;6;0;630;-337;3469;-2191;1138;-3346;2025
388571;1;6;0;630;-293;3475;-2033;973;-3395;2124
388581;1;6;0;630;-265;3433;-1900;841;-3479;2158
388591;1;6;0;631;-195;3397;-1813;668;-3624;2105
388601;1;6;0;631;-161;3384;-1843;520;-3768;1997
388611;1;6;0;631;-186;3410;-1876;394;-3923;1859
388621;1;6;0;631;-251;3475;-1927;275;-4091;1736
388631;1;6;0;631;-338;3571;-1934;185;-4254;1628
388641;1;6;0;631;-385;3652;-1937;142;-4322;1600
388651;1;6;0;631;-391;3750;-1966;145;-4321;1620
388661;1;6;0;631;-375;3765;-1973;155;-4241;1658
388671;1;6;0;631;-376;3701;-1990;149;-4167;1657
388681;1;6;0;631;-329;3603;-2033;211;-4130;1616
388691;1;6;0;631;-301;3559;-2073;260;-4109;1551
388701;1;6;0;631;-257;3529;-2081;282;-4125;1472
388711;1;6;0;631;-285;3522;-2096;266;-4166;1425
388721;1;6;0;631;-308;3562;-2101;220;-4242;1434
388731;1;6;0;631;-297;3602;-2149;166;-4304;1523
388741;1;6;0;631;-236;3665;-2179;132;-4279;1721
388751;1;6;0;631;-180;3688;-2147;131;-4169;1962
388761;1;6;0;631;-82;3644;-2129;184;-4019;2174
388771;1;6;0;631;39;3633;-2096;265;-3830;2361
388781;1;6;0;631;125;3520;-2086;301;-3652;2440
388791;1;6;0;631;175;3379;-2153;309;-3563;2352
388801;1;6;0;631;209;3238;-2263;304;-3538;2149
388811;1;6;0;631;223;3151;-2402;273;-3507;1939
388821;1;6;0;631;244;3140;-2494;214;-3402;1786
388831;1;6;0;631;187;3134;-2540;96;-3247;1724
388841;1;6;0;631;52;3130;-2448;7;-3147;1729
388851;1;6;0;631;-48;3200;-2353;-32;-3114;1807
388861;1;6;0;631;-65;3276;-2248;-21;-3127;1951
388871;1;6;0;631;-38;3321;-2064;-7;-3192;2124
388881;1;6;0;631;4;3333;-1963;9;-3358;2199
388891;1;6;0;631;80;3383;-1990;42;-3541;2201
388901;1;6;0;631;131;3453;-2078;64;-3681;2147
388911;1;6;0;631;184;3573;-2175;110;-3777;2144
388921;1;6;0;631;219;3653;-2240;206;-3825;2264
388931;1;6;0;631;218;3679;-2196;313;-3829;2566
388941;1;6;0;631;231;3605;-2063;381;-3924;2924
388951;1;6;0;631;287;3461;-1960;392;-4067;3302
388961;1;6;0;631;322;3318;-1889;371;-4316;3561
388971;1;6;0;631;221;3348;-1869;240;-4673;3631
388981;1;6;0;631;-26;3517;-2017;4;-5108;3507
388991;1;6;0;631;-52;3846;-2316;-278;-5384;2790
389001;1;6;0;631;14;3988;-2528;-482;-5370;1667
389011;1;6;0;631;-108;3824;-2346;-534;-5215;677
389021;1;6;0;631;-463;3580;-1990;-316;-5429;-49
389031;1;6;0;631;-760;3658;-1803;5;-5285;-167
389041;1;6;0;631;-633;4035;-1847;382;-4817;462
389051;1;6;0;631;-374;4104;-1792;538;-3782;1331
389061;1;6;0;631;-391;3904;-1835;517;-2650;2212
389071;1;6;0;631;-231;3731;-1973;378;-2123;2787
389081;1;6;0;631;-242;3482;-1950;222;-2129;2892
389091;1;6;0;632;-297;3306;-1816;120;-2773;2484
389101;1;6;0;632;-322;3555;-1897;137;-3475;2067
389111;1;6;0;632;-238;3717;-1768;201;-3885;1711
389121;1;6;0;632;-226;3915;-1748;322;-3978;1456
389131;1;6;0;632;-242;4041;-1808;514;-3735;1508
389141;1;6;0;632;-249;4116;-1789;701;-3211;1809
389151;1;6;0;632;-226;4076;-1761;781;-2663;2093
389161;1;6;0;632;-249;3942;-1627;702;-2171;2469
389171;1;6;0;632;-233;3803;-1466;554;-2127;2651
389181;1;6;0;632;-189;3686;-1324;412;-2465;2728
389191;1;6;0;632;-137;3623;-1254;259;-3062;2682
389201;1;6;0;632;-179;3714;-1357;112;-3732;2616
389211;1;6;0;632;-213;3732;-1408;-56;-4321;2640
389221;1;6;0;632;-226;3757;-1567;-167;-4729;2686
389231;1;6;0;632;-153;3737;-1713;-243;-4853;2748
389241;1;6;0;632;-60;3701;-1845;-285;-4767;2734
389251;1;6;0;632;-24;3650;-1939;-331;-4565;2646
389261;1;6;0;632;-17;3631;-1975;-366;-4384;2567
389271;1;6;0;632;-19;3618;-1988;-373;-4229;2514
389281;1;6;0;632;7;3589;-2008;-390;-4082;2466
389291;1;6;0;632;9;3587;-2002;-434;-3908;2434
389301;1;6;0;632;-14;3545;-1900;-478;-3852;2344
389311;1;6;0;632;-75;3566;-1754;-490;-3808;2292
389321;1;6;0;632;-80;3573;-1705;-512;-3769;2312
389331;1;6;0;632;-89;3588;-1708;-505;-3747;2388
389341;1;6;0;632;-52;3624;-1701;-515;-3759;2362
389351;1;6;0;632;34;3683;-1759;-564;-3740;2253
389361;1;6;0;632;112;3727;-1781;-591;-3744;2153
389371;1;6;0;632;141;3772;-1756;-556;-3799;2097
389381;1;6;0;632;164;3809;-1752;-467;-3869;2096
389391;1;6;0;632;177;3815;-1694;-365;-3935;2123
389401;1;6;0;632;239;3810;-1707;-290;-3934;2094
389411;1;6;0;632;264;3777;-1755;-257;-3885;2037
389421;1;6;0;632;293;3732;-1811;-220;-3807;1966
389431;1;6;0;632;338;3676;-1853;-217;-3694;1867
389441;1;6;0;632;353;3652;-1885;-227;-3565;1740
389451;1;6;0;632;347;3654;-1956;-260;-3419;1594
389461;1;6;0;632;353;3606;-2006;-280;-3328;1446
389471;1;6;0;632;384;3568;-2068;-277;-3192;1312
389481;1;6;0;632;409;3566;-2075;-216;-2973;1204
389491;1;6;0;632;446;3554;-2142;-113;-2680;1074
389501;1;6;0;632;457;3533;-2177;-8;-2354;988
389511;1;6;0;632;426;3525;-2169;58;-2109;856
389521;1;6;0;632;385;3576;-2078;86;-1892;804
389531;1;6;0;632;355;3597;-1982;93;-1672;821
389541;1;6;0;632;375;3630;-1926;133;-1466;844
389551;1;6;0;632;426;3696;-1863;161;-1411;800
389561;1;6;0;632;479;3753;-1869;201;-1371;780
389571;1;6;0;632;612;3804;-1875;246;-1273;829
389581;1;6;0;632;691;3768;-1936;327;-1103;885
389591;1;6;0;633;710;3679;-1987;398;-938;934
389601;1;6;0;633;721;3602;-1950;499;-772;828
389611;1;6;0;633;767;3572;-1951;462;-617;694
389621;1;6;0;633;766;3533;-1870;397;-502;627
389631;1;6;0;633;780;3564;-1767;363;-487;692
389641;1;6;0;633;838;3682;-1778;323;-534;892
389651;1;6;0;633;823;3749;-1702;295;-584;1147
389661;1;6;0;633;803;3852;-1683;193;-714;1211
389671;1;6;0;633;553;3996;-1665;-34;-963;1142
389681;1;6;0;633;299;4266;-1632;-380;-1387;1026
389691;1;6;0;633;62;4596;-1550;-773;-1867;961
389701;1;6;0;633;-106;4832;-1461;-1062;-2312;1119
389711;1;6;0;633;-75;4911;-1441;-989;-2617;1550
389721;1;6;0;633;155;4733;-1601;-596;-2747;1993
389731;1;6;0;633;424;4292;-1760;49;-2672;2241
389741;1;6;0;633;554;3795;-2008;611;-2394;2127
389751;1;6;0;633;520;3323;-2431;873;-1854;1824
389761;1;6;0;633;262;2864;-2660;837;-1134;1411
389771;1;6;0;633;-61;2519;-2595;557;-861;898
389781;1;6;0;633;-464;2471;-2533;234;-817;503
389791;1;6;0;633;-826;2607;-2335;-199;-1038;388
389801;1;6;0;633;-991;3177;-1932;-499;-1204;549
389811;1;6;0;633;-881;3574;-1578;-423;-1213;789
389821;1;6;0;633;-753;3750;-1450;-414;-1102;1022
389831;1;6;0;633;-664;3838;-1385;-178;-1269;1123
389841;1;6;0;633;-591;3860;-1368;125;-1739;1170
389851;1;6;0;633;-575;3820;-1453;438;-2232;1219
389861;1;6;0;633;-511;3797;-1656;686;-2547;1362
389871;1;6;0;633;-380;3701;-2021;862;-2527;1514
389881;1;6;0;633;-309;3616;-2301;948;-2340;1625
389891;1;6;0;633;-346;3583;-2454;971;-2141;1592
389901;1;6;0;633;-436;3605;-2487;967;-1963;1483
389911;1;6;0;633;-499;3623;-2368;962;-1877;1334
389921;1;6;0;633;-517;3637;-2243;927;-1836;1164
389931;1;6;0;633;-481;3589;-2070;906;-1803;1046
389941;1;6;0;633;-428;3506;-1940;827;-1847;991
389951;1;6;0;633;-402;3448;-1855;650;-1931;979
389961;1;6;0;633;-378;3394;-1812;420;-2086;1037
389971;1;6;0;633;-366;3340;-1790;192;-2302;1098
389981;1;6;0;633;-386;3351;-1788;8;-2499;1150
389991;1;6;0;633;-387;3458;-1826;-152;-2730;1203
390001;1;6;0;633;-394;3553;-1843;-224;-2934;1230
390011;1;6;0;633;-384;3632;-1870;-130;-3049;1274
390021;1;6;0;633;-331;3633;-1907;-9;-3081;1286
390031;1;6;0;633;-328;3598;-1973;114;-3009;1291
390041;1;6;0;633;-311;3529;-2045;158;-2884;1249
390051;1;6;0;633;-287;3449;-2123;151;-2743;1209
390061;1;6;0;633;-302;3377;-2193;46;-2608;1153
390071;1;6;0;633;-326;3318;-2183;-85;-2525;1125
390081;1;6;0;633;-320;3328;-2197;-215;-2477;1130
390091;1;6;0;634;-328;3363;-2144;-298;-2465;1106
390101;1;6;0;634;-293;3465;-2144;-352;-2486;1037
390111;1;6;0;634;-291;3591;-2080;-328;-2494;952
390121;1;6;0;634;-238;3694;-2057;-286;-2467;836
390131;1;6;0;634;-161;3791;-2049;-260;-2376;760
390141;1;6;0;634;-121;3835;-2043;-298;-2262;764
390151;1;6;0;634;-108;3767;-2026;-357;-2220;856
390161;1;6;0;634;-112;3685;-2007;-428;-2280;999
390171;1;6;0;634;-153;3624;-1993;-461;-2438;1164
390181;1;6;0;634;-175;3568;-2025;-472;-2642;1249
390191;1;6;0;634;-159;3577;-2011;-469;-2813;1260
390201;1;6;0;634;-81;3620;-2083;-449;-2886;1179
390211;1;6;0;634;20;3623;-2158;-405;-2787;1148
390221;1;6;0;634;65;3539;-2185;-354;-2649;1146
390231;1;6;0;634;54;3403;-2172;-342;-2531;1152
390241;1;6;0;634;58;3265;-2180;-362;-2464;1138
390251;1;6;0;634;23;3170;-2223;-468;-2452;1095
390261;1;6;0;634;13;3209;-2227;-592;-2512;1015
390271;1;6;0;634;-19;3337;-2242;-712;-2571;1010
390281;1;6;0;634;5;3435;-2196;-750;-2711;1059
390291;1;6;0;634;40;3475;-2176;-649;-2782;1151
390301;1;6;0;634;102;3493;-2204;-487;-2724;1281
390311;1;6;0;634;132;3436;-2253;-335;-2533;1350
390321;1;6;0;634;157;3376;-2296;-281;-2262;1310
390331;1;6;0;634;206;3292;-2326;-332;-2022;1172
390341;1;6;0;634;212;3193;-2349;-484;-1880;996
390351;1;6;0;634;204;3176;-2363;-641;-1829;828
390361;1;6;0;634;179;3198;-2368;-818;-1822;665
390371;1;6;0;634;138;3329;-2329;-950;-1840;483
390381;1;6;0;634;101;3491;-2250;-1018;-1856;320
390391;1;6;0;634;11;3634;-2124;-993;-1836;288
390401;1;6;0;634;31;3726;-2057;-915;-1722;412
390411;1;6;0;634;176;3707;-2073;-794;-1527;656
390421;1;6;0;634;311;3642;-2095;-667;-1284;908
390431;1;6;0;634;421;3550;-2165;-505;-1108;1097
390441;1;6;0;634;552;3542;-2228;-392;-1039;1240
390451;1;6;0;634;554;3630;-2288;-333;-1090;1363
390461;1;6;0;634;435;3811;-2319;-326;-1220;1418
390471;1;6;0;634;429;4005;-2506;-397;-1342;1187
390481;1;6;0;634;488;4054;-2678;-491;-1314;624
390491;1;6;0;634;290;3916;-2698;-597;-1177;12
390501;1;6;0;634;-54;3628;-2502;-699;-1018;-506
390511;1;6;0;634;-374;3477;-2352;-748;-781;-933
390521;1;6;0;634;-572;3593;-2177;-846;-437;-1166
390531;1;6;0;634;-759;3857;-1997;-1010;-35;-1136
390541;1;6;0;634;-857;3948;-1744;-978;223;-874
390551;1;6;0;634;-751;3979;-1567;-771;381;-369
390561;1;6;0;634;-564;3788;-1448;-409;471;121
390571;1;6;0;634;-447;3507;-1351;-175;381;370
390581;1;6;0;634;-398;3295;-1368;-77;113;363
390591;1;6;0;635;-338;3215;-1502;-192;-185;217
390601;1;6;0;635;-251;3265;-1653;-330;-385;24
390611;1;6;0;635;-148;3459;-1789;-541;-462;-208
390621;1;6;0;635;-148;3655;-1865;-735;-421;-414
390631;1;6;0;635;-248;3823;-1808;-780;-332;-537
390641;1;6;0;635;-334;3938;-1718;-733;-158;-537
390651;1;6;0;635;-361;3975;-1623;-639;116;-473
390661;1;6;0;635;-354;3910;-1560;-540;423;-438
390671;1;6;0;635;-304;3806;-1528;-473;705;-455
390681;1;6;0;635;-263;3691;-1573;-424;901;-500
390691;1;6;0;635;-228;3614;-1619;-406;953;-525
390701;1;6;0;635;-279;3575;-1647;-430;857;-483
390711;1;6;0;635;-309;3634;-1674;-484;717;-432
390721;1;6;0;635;-251;3676;-1723;-569;668;-387
390731;1;6;0;635;-177;3670;-1738;-637;734;-342
390741;1;6;0;635;-82;3581;-1739;-674;894;-302
390751;1;6;0;635;-79;3477;-1722;-645;1022;-308
390761;1;6;0;635;-98;3428;-1679;-586;1115;-339
390771;1;6;0;635;-140;3455;-1634;-539;1164;-373
390781;1;6;0;635;-117;3498;-1577;-508;1184;-388
390791;1;6;0;635;-72;3545;-1563;-458;1163;-423
390801;1;6;0;635;-13;3616;-1511;-422;1092;-457
390811;1;6;0;635;12;3696;-1492;-395;955;-494
390821;1;6;0;635;14;3753;-1491;-342;777;-518
390831;1;6;0;635;16;3784;-1512;-236;587;-527
390841;1;6;0;635;59;3758;-1583;-122;539;-505
390851;1;6;0;635;65;3597;-1669;-16;584;-462
390861;1;6;0;635;-15;3478;-1740;12;599;-425
390871;1;6;0;635;-140;3407;-1709;-71;536;-420
390881;1;6;0;635;-216;3497;-1625;-233;373;-400
390891;1;6;0;635;-217;3620;-1540;-395;162;-308
390901;1;6;0;635;-93;3745;-1541;-492;-17;-183
390911;1;6;0;635;63;3828;-1629;-512;-122;-89
390921;1;6;0;635;186;3828;-1696;-457;-183;-76
390931;1;6;0;635;209;3811;-1755;-402;-213;-127
390941;1;6;0;635;152;3805;-1862;-357;-219;-163
390951;1;6;0;635;97;3753;-1956;-326;-164;-162
390961;1;6;0;635;89;3747;-2046;-319;-15;-134
390971;1;6;0;635;53;3682;-2058;-303;133;-103
390981;1;6;0;635;-13;3607;-1995;-273;216;-110
390991;1;6;0;635;-108;3599;-1902;-244;265;-101
391001;1;6;0;635;-172;3645;-1852;-205;270;-2
391011;1;6;0;635;-152;3711;-1746;-138;289;130
391021;1;6;0;635;-13;3764;-1728;-74;392;215
391031;1;6;0;635;152;3728;-1767;-71;568;82
391041;1;6;0;635;263;3696;-1863;-72;781;-176
391051;1;6;0;635;308;3685;-1998;-36;1073;-404
391061;1;6;0;635;266;3701;-2081;44;1346;-530
391071;1;6;0;635;154;3734;-2118;170;1491;-531
391081;1;6;0;635;92;3736;-2093;304;1591;-421
391091;1;6;0;636;97;3734;-2060;435;1673;-255
391101;1;6;0;636;203;3678;-2098;542;1849;-169
391111;1;6;0;636;326;3557;-2158;588;2074;-226
391121;1;6;0;636;363;3440;-2205;620;2219;-406
391131;1;6;0;636;376;3376;-2174;610;2315;-625
391141;1;6;0;636;384;3306;-2148;578;2390;-760
391151;1;6;0;636;381;3192;-2110;563;2508;-836
391161;1;6;0;636;407;3052;-2104;574;2665;-872
391171;1;6;0;636;339;2996;-2121;568;2773;-957
391181;1;6;0;636;84;3331;-2023;405;2724;-1073
391191;1;6;0;636;-338;4100;-1874;9;2392;-1191
391201;1;6;0;636;-873;4997;-1692;-450;1472;-1165
391211;1;6;0;636;-1264;5800;-1388;-691;526;-738
391221;1;6;0;636;-1065;5944;-939;-660;-11;-13
391231;1;6;0;636;-201;5160;-764;-344;502;426
391241;1;6;0;636;85;3998;-1277;205;1358;162
391251;1;6;0;636;122;3217;-1764;860;1908;-419
391261;1;6;0;636;6;2610;-2194;1357;2334;-1128
391271;1;6;0;636;-91;2301;-2530;1530;2639;-1815
391281;1;6;0;636;-402;2148;-2456;1409;3107;-2168
391291;1;6;0;636;-687;2448;-2261;892;3042;-2162
391301;1;6;0;636;-902;3302;-2019;83;2726;-1633
391311;1;6;0;636;-940;3987;-1673;-532;2145;-759
391321;1;6;0;636;-635;4519;-1468;-695;1425;-43
391331;1;6;0;636;-208;4826;-1508;-433;963;555
391341;1;6;0;636;164;4619;-1594;65;545;787
391351;1;6;0;636;346;4083;-1649;642;291;385
391361;1;6;0;636;208;3662;-1942;1118;111;-478
391371;1;6;0;636;-36;3355;-2113;1370;185;-1160
391381;1;6;0;636;-268;3255;-2164;1424;437;-1483
391391;1;6;0;636;-399;3225;-2180;1323;654;-1489
391401;1;6;0;636;-546;3257;-2267;1068;843;-1220
391411;1;6;0;636;-529;3286;-2255;670;869;-800
391421;1;6;0;636;-421;3309;-2164;319;719;-571
391431;1;6;0;636;-259;3334;-1948;64;434;-574
391441;1;6;0;636;-170;3435;-1764;-4;212;-718
391451;1;6;0;636;-119;3535;-1670;34;96;-810
391461;1;6;0;636;-139;3568;-1666;129;15;-857
391471;1;6;0;636;-197;3573;-1788;238;-52;-797
391481;1;6;0;636;-263;3584;-1923;323;-182;-670
391491;1;6;0;636;-290;3620;-2016;404;-325;-494
391501;1;6;0;636;-251;3624;-2076;462;-393;-307
391511;1;6;0;636;-177;3571;-2133;492;-321;-187
391521;1;6;0;636;-135;3455;-2214;465;-161;-163
391531;1;6;0;636;-94;3316;-2264;384;25;-233
391541;1;6;0;636;-133;3201;-2298;231;170;-349
391551;1;6;0;636;-176;3213;-2339;62;211;-431
391561;1;6;0;636;-203;3310;-2296;-99;143;-478
391571;1;6;0;636;-216;3454;-2233;-166;41;-462
391581;1;6;0;636;-149;3581;-2165;-147;1;-402
391591;1;6;0;637;-43;3674;-2125;-55;49;-333
391601;1;6;0;637;-11;3676;-2081;77;137;-255
391611;1;6;0;637;24;3527;-2014;175;245;-204
391621;1;6;0;637;84;3329;-2064;216;359;-267
391631;1;6;0;637;104;3166;-2180;139;526;-405
391641;1;6;0;637;80;3064;-2315;-18;546;-622
391651;1;6;0;637;-47;3144;-2345;-158;321;-812
391661;1;6;0;637;-235;3401;-2276;-244;-87;-817
391671;1;6;0;637;-289;3664;-2150;-196;-460;-556
391681;1;6;0;637;-195;3880;-2061;-52;-661;-77
391691;1;6;0;637;-26;3913;-1969;192;-672;481
391701;1;6;0;637;139;3753;-1924;445;-589;987
391711;1;6;0;637;267;3546;-1995;569;-479;1336
391721;1;6;0;637;389;3288;-2073;506;-396;1453
391731;1;6;0;637;427;3090;-2154;277;-540;1415
391741;1;6;0;637;364;2978;-2274;-22;-942;1247
391751;1;6;0;637;404;3001;-2418;-372;-1353;927
391761;1;6;0;637;518;3032;-2605;-629;-1647;476
391771;1;6;0;637;549;3112;-2728;-662;-1713;114
391781;1;6;0;637;324;3129;-2691;-608;-1563;-143
391791;1;6;0;637;-41;3264;-2559;-535;-1399;-160
391801;1;6;0;637;-252;3409;-2326;-474;-1278;68
391811;1;6;0;637;-110;3526;-2248;-374;-1042;508
391821;1;6;0;637;198;3533;-2333;-201;-745;953
391831;1;6;0;637;484;3427;-2543;5;-454;1206
391841;1;6;0;637;631;3231;-2721;167;-288;1093
391851;1;6;0;637;581;3084;-2871;238;-219;722
391861;1;6;0;637;415;3090;-2882;148;-221;342
391871;1;6;0;637;280;3140;-2749;-47;-263;79
391881;1;6;0;637;191;3177;-2494;-205;-363;57
391891;1;6;0;637;178;3258;-2275;-293;-538;179
391901;1;6;0;637;177;3410;-2235;-273;-736;235
391911;1;6;0;637;189;3519;-2268;-240;-914;156
391921;1;6;0;637;153;3611;-2313;-128;-1078;-82
391931;1;6;0;637;55;3640;-2443;27;-1116;-435
391941;1;6;0;637;-63;3650;-2580;137;-969;-782
391951;1;6;0;637;-154;3632;-2700;205;-727;-1078
391961;1;6;0;637;-258;3622;-2881;239;-365;-1323
391971;1;6;0;637;-345;3638;-2981;336;19;-1433
391981;1;6;0;637;-282;3649;-2953;484;411;-1445
391991;1;6;0;637;-229;3726;-2774;615;764;-1441
392001;1;6;0;637;-179;3832;-2399;639;1079;-1382
392011;1;6;0;637;-135;3833;-2075;625;1222;-1197
392021;1;6;0;637;-79;3755;-1758;555;1099;-870
392031;1;6;0;637;15;3585;-1556;426;780;-712
392041;1;6;0;637;31;3412;-1463;246;407;-836
392051;1;6;0;637;-74;3307;-1543;39;-53;-1169
392061;1;6;0;637;-259;3210;-1579;-246;-562;-1539
392071;1;6;0;637;-463;3272;-1673;-417;-960;-1776
392081;1;6;0;637;-598;3338;-1752;-585;-1093;-1748
392091;1;6;0;638;-599;3389;-1862;-659;-852;-1452
392101;1;6;0;638;-563;3394;-1994;-669;-427;-1081
392111;1;6;0;638;-517;3423;-2166;-616;175;-793
392121;1;6;0;638;-475;3488;-2299;-565;722;-784
392131;1;6;0;638;-484;3665;-2320;-584;1190;-992
392141;1;6;0;638;-532;3868;-2167;-712;1399;-1350
392151;1;6;0;638;-602;4119;-1949;-875;1419;-1660
392161;1;6;0;638;-850;4194;-1655;-945;1293;-1667
392171;1;6;0;638;-936;4176;-1361;-943;1017;-1610
392181;1;6;0;638;-998;4111;-1231;-910;832;-1489
392191;1;6;0;638;-1014;3940;-1109;-884;728;-1426
392201;1;6;0;638;-1013;3795;-1135;-885;684;-1391
392211;1;6;0;638;-1021;3665;-1217;-885;622;-1322
392221;1;6;0;638;-976;3601;-1385;-835;562;-1212
392231;1;6;0;638;-851;3600;-1601;-794;546;-1079
392241;1;6;0;638;-768;3628;-1787;-608;675;-914
392251;1;6;0;638;-683;3627;-1855;-369;893;-758
392261;1;6;0;638;-533;3621;-1916;-137;1156;-645
392271;1;6;0;638;-465;3591;-1930;-7;1455;-483
392281;1;6;0;638;-405;3507;-1853;35;1675;-342
392291;1;6;0;638;-324;3486;-1866;27;1761;-312
392301;1;6;0;638;-240;3529;-1929;-18;1734;-418
392311;1;6;0;638;-200;3591;-1961;-65;1647;-612
392321;1;6;0;638;-218;3608;-1953;-67;1492;-784
392331;1;6;0;638;-262;3519;-1990;1;1335;-901
392341;1;6;0;638;-296;3410;-2001;24;1272;-934
392351;1;6;0;638;-353;3353;-2085;-49;1338;-967
392361;1;6;0;638;-414;3337;-2249;-123;1478;-991
392371;1;6;0;638;-389;3453;-2391;-195;1626;-965
392381;1;6;0;638;-377;3610;-2412;-239;1780;-881
392391;1;6;0;638;-366;3784;-2341;-179;2004;-731
392401;1;6;0;638;-360;3804;-2222;-143;2198;-590
392411;1;6;0;638;-317;3739;-2139;-151;2342;-564
392421;1;6;0;638;-264;3646;-2042;-223;2434;-585
392431;1;6;0;638;-178;3531;-1955;-279;2443;-592
392441;1;6;0;638;-107;3452;-1920;-314;2390;-610
392451;1;6;0;638;-58;3402;-1923;-340;2331;-613
392461;1;6;0;638;-14;3409;-2009;-354;2265;-588
392471;1;6;0;638;-11;3444;-2145;-372;2255;-636
392481;1;6;0;638;-44;3503;-2259;-405;2316;-727
392491;1;6;0;638;-106;3562;-2355;-458;2416;-871
392501;1;6;0;638;-150;3641;-2395;-550;2557;-1057
392511;1;6;0;638;-226;3715;-2367;-624;2756;-1157
392521;1;6;0;638;-279;3775;-2254;-666;2935;-1116
392531;1;6;0;638;-244;3773;-2142;-653;3101;-988
392541;1;6;0;638;-134;3727;-2092;-605;3222;-884
392551;1;6;0;638;-18;3602;-2029;-573;3360;-870
392561;1;6;0;638;61;3467;-1999;-563;3439;-964
392571;1;6;0;638;107;3393;-2001;-599;3450;-1117
392581;1;6;0;638;129;3355;-2048;-713;3422;-1302
392591;1;6;0;639;133;3327;-2120;-891;3423;-1520
392601;1;6;0;639;97;3233;-2096;-1019;3413;-1667
392611;1;6;0;639;85;3120;-2035;-1070;3359;-1774
392621;1;6;0;639;64;3122;-1958;-1139;3272;-1925
392631;1;6;0;639;-26;3243;-1881;-1236;3188;-2042
392641;1;6;0;639;-87;3357;-1834;-1238;3086;-2130
392651;1;6;0;639;-17;3451;-1882;-1125;3078;-2204
392661;1;6;0;639;68;3520;-1981;-936;3137;-2280
392671;1;6;0;639;87;3575;-2126;-670;3253;-2359
392681;1;6;0;639;-11;3547;-2317;-355;3395;-2319
392691;1;6;0;639;-76;3492;-2541;-60;3528;-2161
392701;1;6;0;639;-33;3456;-2750;97;3815;-2067
392711;1;6;0;639;-5;3482;-2923;78;4290;-2151
392721;1;6;0;639;-52;3486;-2899;-69;4765;-2316
392731;1;6;0;639;-104;3515;-2753;-239;5081;-2436
392741;1;6;0;639;-120;3544;-2506;-371;5347;-2442
392751;1;6;0;639;-79;3479;-2353;-499;5644;-2439
392761;1;6;0;639;23;3384;-2347;-573;5937;-2481
392771;1;6;0;639;87;3253;-2416;-640;6112;-2770
392781;1;6;0;639;76;3172;-2485;-693;6161;-3260
392791;1;6;0;639;-104;3245;-2417;-756;6166;-3722
392801;1;6;0;639;-236;3405;-2245;-840;6160;-3964
392811;1;6;0;639;-263;3529;-2106;-933;6197;-3944
392821;1;6;0;639;-149;3492;-2039;-923;6304;-3894
392831;1;6;0;639;-67;3440;-2057;-826;6337;-3978
392841;1;6;0;639;-187;3573;-2057;-672;6191;-4184
392851;1;6;0;639;-325;3771;-1950;-552;5896;-4300
392861;1;6;0;639;-369;3976;-1755;-381;5492;-4269
392871;1;6;0;639;-328;4113;-1569;-184;5185;-4091
392881;1;6;0;639;-246;4157;-1427;-30;4996;-3805
392891;1;6;0;639;-254;4020;-1423;31;4790;-3632
392901;1;6;0;639;-289;3897;-1590;-153;4450;-3665
392911;1;6;0;639;-433;3752;-1775;-423;3989;-3870
392921;1;6;0;639;-530;3616;-2076;-561;3631;-4106
392931;1;6;0;639;-487;3461;-2424;-458;3667;-4264
392941;1;6;0;639;-340;3282;-2794;-244;4195;-4418
392951;1;6;0;639;-250;3010;-3074;-34;5057;-4730
392961;1;6;0;639;-316;2771;-3322;129;5991;-5135
392971;1;6;0;639;-459;2582;-3266;19;6733;-5546
392981;1;6;0;639;-588;2668;-3221;-283;7331;-5773
392991;1;6;0;639;-802;2981;-2867;-814;7890;-5656
393001;1;6;0;639;-894;3343;-2377;-1389;8223;-5208
393011;1;6;0;639;-820;3548;-1947;-1717;8184;-4796
393021;1;6;0;639;-817;3624;-1652;-1776;8067;-4479
393031;1;6;0;639;-811;3546;-1484;-1680;7719;-4304
393041;1;6;0;639;-674;3374;-1543;-1361;7217;-4466
393051;1;6;0;639;-640;3196;-1784;-896;6815;-4861
393061;1;6;0;639;-744;3113;-2127;-470;6569;-5249
393071;1;6;0;639;-806;3090;-2500;-333;6554;-5533
393081;1;6;0;639;-895;3096;-2654;-442;6874;-5584
393091;1;6;0;640;-995;3106;-2702;-695;7388;-5372
393101;1;6;0;640;-945;3124;-2567;-925;7689;-5000
393111;1;6;0;640;-891;3117;-2371;-1087;7748;-4595
393121;1;6;0;640;-747;3178;-2058;-1184;7594;-4361
393131;1;6;0;640;-676;3278;-1914;-1204;7286;-4300
393141;1;6;0;640;-622;3380;-1821;-1112;6901;-4301
393151;1;6;0;640;-552;3470;-1904;-958;6489;-4404
393161;1;6;0;640;-514;3543;-2046;-807;6153;-4538
393171;1;6;0;640;-521;3552;-2217;-696;6007;-4637
393181;1;6;0;640;-504;3486;-2370;-539;6042;-4640
393191;1;6;0;640;-473;3395;-2527;-410;6308;-4507
393201;1;6;0;640;-493;3231;-2616;-373;6688;-4356
393211;1;6;0;640;-507;3116;-2674;-386;7033;-4194
393221;1;6;0;640;-533;3020;-2657;-471;7197;-4111
393231;1;6;0;640;-533;3021;-2660;-675;7148;-4098
393241;1;6;0;640;-602;3073;-2566;-846;7000;-4042
393251;1;6;0;640;-655;3143;-2443;-978;6686;-4040
393261;1;6;0;640;-671;3287;-2338;-1070;6452;-3979
393271;1;6;0;640;-640;3331;-2245;-1109;6248;-3930
393281;1;6;0;640;-608;3392;-2251;-1098;6163;-3853
393291;1;6;0;640;-556;3412;-2318;-1034;6172;-3731
393301;1;6;0;640;-506;3332;-2442;-978;6228;-3649
393311;1;6;0;640;-505;3208;-2528;-888;6329;-3644
393321;1;6;0;640;-553;3127;-2565;-881;6453;-3689
393331;1;6;0;640;-599;3085;-2550;-910;6518;-3782
393341;1;6;0;640;-634;3097;-2548;-975;6519;-3895
393351;1;6;0;640;-608;3117;-2513;-985;6479;-3949
393361;1;6;0;640;-600;3197;-2470;-976;6437;-3929
393371;1;6;0;640;-634;3248;-2406;-969;6381;-3841
393381;1;6;0;640;-654;3325;-2412;-970;6278;-3702
393391;1;6;0;640;-691;3345;-2450;-977;6123;-3581
393401;1;6;0;640;-698;3334;-2438;-1020;5951;-3513
393411;1;6;0;640;-652;3325;-2451;-1045;5840;-3425
393421;1;6;0;640;-622;3298;-2438;-1032;5825;-3336
393431;1;6;0;640;-600;3256;-2423;-999;5848;-3218
393441;1;6;0;640;-558;3230;-2429;-997;5837;-3126
393451;1;6;0;640;-536;3231;-2438;-1046;5800;-3086
393461;1;6;0;640;-503;3258;-2445;-1134;5645;-3058
393471;1;6;0;640;-525;3228;-2422;-1208;5471;-3024
393481;1;6;0;640;-539;3171;-2402;-1226;5265;-2974
393491;1;6;0;640;-546;3125;-2460;-1211;5120;-2876
393501;1;6;0;640;-548;3061;-2536;-1143;5032;-2810
393511;1;6;0;640;-545;3087;-2630;-1083;4996;-2757
393521;1;6;0;640;-546;3084;-2710;-1089;4962;-2719
393531;1;6;0;640;-578;3088;-2749;-1153;4945;-2708
393541;1;6;0;640;-602;3153;-2727;-1221;4923;-2702
393551;1;6;0;640;-619;3256;-2582;-1266;4878;-2622
393561;1;6;0;640;-604;3267;-2405;-1236;4822;-2477
393571;1;6;0;640;-530;3236;-2311;-1145;4732;-2277
393581;1;6;0;640;-490;3213;-2252;-1056;4636;-2057
393591;1;6;0;641;-523;3231;-2218;-975;4464;-1875
393601;1;6;0;641;-459;3341;-2250;-932;4250;-1820
393611;1;6;0;641;-406;3427;-2290;-923;4047;-1950
393621;1;6;0;641;-293;3462;-2340;-865;3965;-2166
393631;1;6;0;641;-229;3399;-2391;-766;4073;-2330
393641;1;6;0;641;-274;3336;-2395;-685;4258;-2433
393651;1;6;0;641;-413;3281;-2401;-631;4414;-2418
393661;1;6;0;641;-511;3326;-2332;-621;4440;-2324
393671;1;6;0;641;-560;3465;-2260;-647;4375;-2307
393681;1;6;0;641;-532;3585;-2177;-672;4292;-2414
393691;1;6;0;641;-482;3547;-2081;-609;4180;-2617
393701;1;6;0;641;-438;3442;-1972;-470;4097;-2856
393711;1;6;0;641;-461;3362;-1896;-293;4021;-3034
393721;1;6;0;641;-530;3379;-1978;-119;3948;-3101
393731;1;6;0;641;-605;3571;-2259;-36;3989;-3031
393741;1;6;0;641;-632;3846;-2514;-60;4132;-2773
393751;1;6;0;641;-674;4050;-2648;-140;4355;-2355
393761;1;6;0;641;-662;4083;-2608;-286;4657;-1900
393771;1;6;0;641;-546;3980;-2398;-448;4983;-1562
393781;1;6;0;641;-398;3768;-2036;-589;5255;-1498
393791;1;6;0;641;-310;3582;-1765;-726;5418;-1649
393801;1;6;0;641;-232;3483;-1460;-811;5296;-1907
393811;1;6;0;641;-177;3501;-1205;-941;4989;-2245
393821;1;6;0;641;-128;3536;-1095;-1026;4663;-2580
393831;1;6;0;641;-81;3526;-1117;-1126;4436;-2814
393841;1;6;0;641;-1;3457;-1247;-1149;4205;-2972
393851;1;6;0;641;-19;3400;-1422;-1049;3951;-3149
393861;1;6;0;641;-61;3526;-1653;-898;3765;-3326
393871;1;6;0;641;-97;3854;-1936;-769;3762;-3401
393881;1;6;0;641;-267;4227;-2123;-710;3823;-3318
393891;1;6;0;641;-356;4532;-2193;-666;3930;-3016
393901;1;6;0;641;-297;4576;-2113;-594;4250;-2636
393911;1;6;0;641;-208;4225;-1953;-466;4666;-2348
393921;1;6;0;641;-143;3797;-1869;-340;5015;-2278
393931;1;6;0;641;-66;3436;-1893;-276;5240;-2465
393941;1;6;0;641;-24;3244;-1970;-323;5241;-2748
393951;1;6;0;641;8;3186;-1991;-356;5145;-2995
393961;1;6;0;641;30;3276;-2018;-413;5120;-3134
393971;1;6;0;641;35;3410;-2052;-506;5180;-3080
393981;1;6;0;641;-17;3457;-1977;-675;5236;-3028
393991;1;6;0;641;-80;3499;-1840;-810;5214;-2906
394001;1;6;0;641;-108;3513;-1674;-890;5137;-2777
394011;1;6;0;641;-145;3568;-1589;-905;4992;-2676
394021;1;6;0;641;-153;3614;-1513;-863;4856;-2629
394031;1;6;0;641;-155;3646;-1534;-748;4685;-2654
394041;1;6;0;641;-113;3653;-1592;-541;4531;-2692
394051;1;6;0;641;-120;3669;-1677;-293;4400;-2655
394061;1;6;0;641;-123;3692;-1671;-62;4274;-2571
394071;1;6;0;641;-72;3714;-1688;108;4199;-2413
394081;1;6;0;641;-8;3678;-1730;215;4198;-2161
394091;1;6;0;642;98;3582;-1803;218;4090;-1972
394101;1;6;0;642;158;3482;-1895;187;3887;-1871
394111;1;6;0;642;171;3382;-1968;150;3574;-1862
394121;1;6;0;642;161;3343;-2006;99;3277;-1951
394131;1;6;0;642;113;3383;-2080;9;3103;-2110
394141;1;6;0;642;31;3420;-2118;-168;3012;-2297
394151;1;6;0;642;-42;3421;-2179;-346;2971;-2416
394161;1;6;0;642;-99;3482;-2236;-504;2972;-2484
394171;1;6;0;642;-132;3494;-2266;-569;3046;-2518
394181;1;6;0;642;-153;3470;-2343;-535;3199;-2595
394191;1;6;0;642;-218;3430;-2330;-475;3362;-2672
394201;1;6;0;642;-339;3449;-2202;-469;3376;-2742
394211;1;6;0;642;-396;3578;-2003;-559;3373;-2651
394221;1;6;0;642;-373;3760;-1899;-685;3362;-2370
394231;1;6;0;642;-272;3888;-1872;-740;3270;-2025
394241;1;6;0;642;-173;3959;-1836;-620;3100;-1816
394251;1;6;0;642;-28;3876;-1845;-394;2870;-1795
394261;1;6;0;642;36;3722;-1853;-179;2658;-1874
394271;1;6;0;642;61;3585;-1921;-32;2512;-1974
394281;1;6;0;642;62;3472;-2029;28;2436;-1959
394291;1;6;0;642;64;3403;-2124;9;2410;-1871
394301;1;6;0;642;135;3355;-2225;-29;2374;-1789
394311;1;6;0;642;239;3313;-2313;-48;2354;-1832
394321;1;6;0;642;225;3279;-2431;-56;2356;-1969
394331;1;6;0;642;135;3272;-2419;-66;2310;-2139
394341;1;6;0;642;12;3338;-2358;-153;2237;-2250
394351;1;6;0;642;-47;3378;-2246;-268;2169;-2260
394361;1;6;0;642;-76;3399;-2175;-401;2076;-2193
394371;1;6;0;642;-81;3388;-2104;-511;2007;-2042
394381;1;6;0;642;-20;3427;-2073;-590;1892;-1979
394391;1;6;0;642;11;3501;-2091;-639;1776;-1979
394401;1;6;0;642;-28;3600;-2068;-598;1595;-1954
394411;1;6;0;642;-77;3665;-2034;-551;1421;-1872
394421;1;6;0;642;-129;3692;-2049;-549;1265;-1766
394431;1;6;0;642;-171;3660;-2027;-624;1126;-1706
394441;1;6;0;642;-49;3600;-2096;-699;1013;-1823
394451;1;6;0;642;91;3486;-2255;-729;1031;-1979
394461;1;6;0;642;112;3344;-2370;-618;1028;-2064
394471;1;6;0;642;24;3316;-2390;-411;927;-2050
394481;1;6;0;642;-124;3378;-2332;-233;779;-1911
394491;1;6;0;642;-136;3426;-2249;-76;712;-1634
394501;1;6;0;642;36;3412;-2213;13;768;-1370
394511;1;6;0;642;158;3367;-2228;1;826;-1299
394521;1;6;0;642;118;3420;-2221;-125;709;-1414
394531;1;6;0;642;-26;3639;-2174;-360;377;-1535
394541;1;6;0;642;-228;3912;-2082;-638;-66;-1506
394551;1;6;0;642;-434;4166;-1995;-887;-501;-1298
394561;1;6;0;642;-559;4287;-2050;-1022;-806;-956
394571;1;6;0;642;-561;4294;-2139;-1031;-873;-585
394581;1;6;0;642;-506;4065;-2104;-877;-729;-269
394591;1;6;0;643;-326;3744;-2179;-580;-576;-194
394601;1;6;0;643;-80;3429;-2228;-209;-283;-170
394611;1;6;0;643;188;3163;-2453;100;10;-436
394621;1;6;0;643;314;3101;-2703;243;262;-804
394631;1;6;0;643;166;3230;-2860;244;399;-1159
394641;1;6;0;643;-216;3451;-2699;98;371;-1297
394651;1;6;0;643;-621;3681;-2443;-73;262;-1251
394661;1;6;0;643;-818;3852;-2110;-153;135;-996
394671;1;6;0;643;-820;3867;-1772;-171;104;-673
394681;1;6;0;643;-720;3710;-1509;-70;84;-453
394691;1;6;0;643;-531;3614;-1392;66;59;-339
394701;1;6;0;643;-386;3523;-1327;152;-9;-295
394711;1;6;0;643;-336;3516;-1330;154;-138;-296
394721;1;6;0;643;-373;3556;-1385;115;-362;-251
394731;1;6;0;643;-433;3554;-1448;28;-671;-255
394741;1;6;0;643;-546;3575;-1556;-13;-984;-226
394751;1;6;0;643;-644;3587;-1552;-81;-1297;-220
394761;1;6;0;643;-746;3619;-1560;-115;-1513;-200
394771;1;6;0;643;-810;3617;-1536;-105;-1683;-132
394781;1;6;0;643;-836;3618;-1546;-52;-1832;-71
394791;1;6;0;643;-833;3618;-1649;81;-1914;8
394801;1;6;0;643;-778;3588;-1770;273;-1909;108
394811;1;6;0;643;-691;3503;-1901;458;-1821;200
394821;1;6;0;643;-594;3439;-2043;603;-1628;254
394831;1;6;0;643;-579;3344;-2250;641;-1333;269
394841;1;6;0;643;-676;3272;-2363;613;-1046;275
394851;1;6;0;643;-778;3264;-2462;539;-907;253
394861;1;6;0;643;-889;3347;-2428;468;-755;288
394871;1;6;0;643;-978;3459;-2340;374;-705;286
394881;1;6;0;643;-957;3543;-2164;297;-715;317
394891;1;6;0;643;-862;3598;-2050;323;-701;430
394901;1;6;0;643;-760;3571;-1937;336;-685;558
394911;1;6;0;643;-665;3534;-1922;312;-675;646
394921;1;6;0;643;-565;3510;-1893;207;-761;714
394931;1;6;0;643;-555;3492;-1885;127;-918;773
394941;1;6;0;643;-572;3520;-1897;39;-1065;824
394951;1;6;0;643;-582;3551;-1878;13;-1240;859
394961;1;6;0;643;-585;3583;-1942;61;-1426;809
394971;1;6;0;643;-622;3584;-1993;142;-1547;784
394981;1;6;0;643;-664;3553;-2061;217;-1585;723
394991;1;6;0;643;-700;3478;-2096;281;-1529;752
395001;1;6;0;643;-644;3396;-2143;311;-1423;750
395011;1;6;0;643;-601;3330;-2191;276;-1264;727
395021;1;6;0;643;-570;3295;-2213;226;-1099;724
395031;1;6;0;643;-587;3281;-2182;140;-973;727
395041;1;6;0;643;-620;3289;-2163;59;-972;708
395051;1;6;0;643;-663;3311;-2064;-8;-1040;709
395061;1;6;0;643;-658;3379;-1952;-87;-1214;688
395071;1;6;0;643;-604;3463;-1914;-156;-1384;667
395081;1;6;0;643;-527;3541;-1905;-185;-1521;664
395091;1;6;0;644;-452;3541;-1972;-164;-1641;638
395101;1;6;0;644;-405;3539;-2045;-99;-1687;589
395111;1;6;0;644;-372;3479;-2176;3;-1650;624
395121;1;6;0;644;-411;3398;-2262;98;-1598;696
395131;1;6;0;644;-449;3301;-2276;112;-1512;719
395141;1;6;0;644;-444;3224;-2310;66;-1406;743
395151;1;6;0;644;-449;3206;-2280;-34;-1339;763
395161;1;6;0;644;-435;3205;-2289;-165;-1293;736
395171;1;6;0;644;-440;3158;-2304;-264;-1334;683
395181;1;6;0;644;-465;3255;-2352;-292;-1444;644
395191;1;6;0;644;-534;3378;-2378;-270;-1532;688
395201;1;6;0;644;-547;3523;-2365;-205;-1578;853
395211;1;6;0;644;-503;3595;-2338;-95;-1553;1092
395221;1;6;0;644;-373;3591;-2384;27;-1446;1270
395231;1;6;0;644;-271;3521;-2434;109;-1301;1375
395241;1;6;0;644;-166;3391;-2503;143;-1128;1373
395251;1;6;0;644;-103;3304;-2495;96;-1008;1297
395261;1;6;0;644;-127;3223;-2440;32;-983;1182
395271;1;6;0;644;-156;3193;-2398;-41;-1051;1071
395281;1;6;0;644;-200;3220;-2349;-80;-1167;948
395291;1;6;0;644;-232;3288;-2365;-129;-1258;850
395301;1;6;0;644;-218;3378;-2355;-146;-1316;777
395311;1;6;0;644;-194;3450;-2355;-115;-1341;783
395321;1;6;0;644;-204;3480;-2333;-44;-1342;842
395331;1;6;0;644;-152;3459;-2312;66;-1340;948
395341;1;6;0;644;-152;3415;-2269;175;-1325;1093
395351;1;6;0;644;-122;3308;-2202;246;-1392;1247
395361;1;6;0;644;-83;3220;-2142;255;-1536;1351
395371;1;6;0;644;-39;3136;-2086;281;-1753;1403
395381;1;6;0;644;25;3112;-2049;187;-2027;1427
395391;1;6;0;644;-79;3277;-2062;104;-2352;1511
395401;1;6;0;644;-235;3680;-2270;1;-2669;1587
395411;1;6;0;644;-248;4124;-2663;9;-2912;1317
395421;1;6;0;644;-185;4510;-3217;187;-2748;714
395431;1;6;0;644;-98;4092;-2890;384;-2202;230
395441;1;6;0;644;-415;3593;-2525;660;-1646;-66
395451;1;6;0;644;-737;3632;-2370;1009;-1137;186
395461;1;6;0;644;-767;3595;-2024;1032;-482;462
395471;1;6;0;644;-782;3525;-1803;771;140;499
395481;1;6;0;644;-743;3436;-1519;339;400;422
395491;1;6;0;644;-622;3472;-1321;-98;149;364
395501;1;6;0;644;-517;3480;-1083;-483;-456;445
395511;1;6;0;644;-504;3527;-977;-574;-1054;532
395521;1;6;0;644;-459;3721;-1163;-521;-1597;579
395531;1;6;0;644;-351;3861;-1413;-434;-1875;509
395541;1;6;0;644;-349;3896;-1772;-279;-1819;362
395551;1;6;0;644;-457;3906;-2003;-120;-1505;312
395561;1;6;0;644;-603;3844;-2030;-14;-1105;309
395571;1;6;0;644;-697;3772;-1975;5;-698;303
395581;1;6;0;644;-684;3652;-1893;-35;-341;307
395591;1;6;0;645;-580;3590;-1776;-129;-125;354
395601;1;6;0;645;-568;3626;-1634;-147;-152;479
395611;1;6;0;645;-502;3721;-1523;-137;-368;640
395621;1;6;0;645;-457;3782;-1461;-161;-642;883
395631;1;6;0;645;-387;3751;-1460;-168;-900;1044
395641;1;6;0;645;-329;3594;-1552;-203;-1036;1086
395651;1;6;0;645;-303;3411;-1643;-213;-1106;1008
395661;1;6;0;645;-317;3295;-1755;-243;-1138;874
395671;1;6;0;645;-351;3285;-1795;-352;-1122;757
395681;1;6;0;645;-409;3315;-1840;-452;-1059;705
395691;1;6;0;645;-446;3355;-1875;-523;-987;701
395701;1;6;0;645;-441;3464;-1882;-551;-920;727
395711;1;6;0;645;-420;3581;-1921;-527;-854;711
395721;1;6;0;645;-358;3708;-1942;-470;-792;647
395731;1;6;0;645;-301;3775;-1980;-387;-656;574
395741;1;6;0;645;-288;3765;-1967;-300;-510;551
395751;1;6;0;645;-289;3727;-1898;-177;-371;592
395761;1;6;0;645;-278;3672;-1861;-55;-199;644
395771;1;6;0;645;-257;3592;-1823;-3;-102;673
395781;1;6;0;645;-160;3553;-1883;-49;-37;619
395791;1;6;0;645;-126;3501;-1933;-187;9;496
395801;1;6;0;645;-85;3506;-2000;-330;4;358
395811;1;6;0;645;-51;3535;-2000;-436;-40;189
395821;1;6;0;645;-35;3527;-1986;-486;-74;34
395831;1;6;0;645;-26;3518;-1952;-498;-31;-142
395841;1;6;0;645;-27;3490;-1968;-488;77;-320
395851;1;6;0;645;-24;3448;-2016;-490;259;-485
395861;1;6;0;645;-48;3374;-2087;-506;494;-664
395871;1;6;0;645;-42;3346;-2138;-540;675;-826
395881;1;6;0;645;-94;3331;-2204;-625;853;-1042
395891;1;6;0;645;-105;3396;-2179;-685;1022;-1250
395901;1;6;0;645;-154;3453;-2173;-688;1202;-1393
395911;1;6;0;645;-159;3485;-2224;-652;1386;-1452
395921;1;6;0;645;-136;3536;-2349;-582;1569;-1454
395931;1;6;0;645;-151;3598;-2397;-471;1779;-1432
395941;1;6;0;645;-135;3735;-2365;-319;2015;-1368
395951;1;6;0;645;-90;3809;-2252;-187;2270;-1258
395961;1;6;0;645;13;3820;-2147;-26;2530;-1157
395971;1;6;0;645;156;3760;-2109;64;2693;-1045
395981;1;6;0;645;218;3666;-2114;84;2727;-925
395991;1;6;0;645;231;3614;-2076;70;2623;-809
396001;1;6;0;645;300;3578;-2031;40;2493;-716
396011;1;6;0;645;390;3568;-2042;62;2501;-675
396021;1;6;0;645;522;3535;-2140;110;2642;-729
396031;1;6;0;645;587;3505;-2306;159;2844;-828
396041;1;6;0;645;518;3483;-2455;153;2986;-981
396051;1;6;0;645;238;3592;-2543;15;2959;-1170
396061;1;6;0;645;-184;3962;-2508;-299;2723;-1349
396071;1;6;0;645;-664;4441;-2438;-735;2366;-1396
396081;1;6;0;645;-1062;4813;-2279;-1040;1976;-1192
396091;1;6;0;646;-1077;4752;-1998;-975;1788;-796
396101;1;6;0;646;-825;4299;-1834;-630;1966;-425
396111;1;6;0;646;-417;3584;-1811;-127;2456;-420
396121;1;6;0;646;-56;3033;-2015;302;3076;-826
396131;1;6;0;646;55;2689;-2332;444;3459;-1445
396141;1;6;0;646;-16;2722;-2567;277;3573;-2073
396151;1;6;0;646;-242;3058;-2631;-123;3630;-2448
396161;1;6;0;646;-560;3305;-2461;-577;3687;-2463
396171;1;6;0;646;-772;3480;-2133;-923;3616;-2246
396181;1;6;0;646;-851;3545;-1792;-1140;3518;-2019
396191;1;6;0;646;-957;3504;-1495;-1204;3423;-1840
396201;1;6;0;646;-937;3405;-1281;-1121;3174;-1729
396211;1;6;0;646;-949;3282;-1282;-911;2829;-1625
396221;1;6;0;646;-882;3184;-1491;-588;2528;-1548
396231;1;6;0;646;-862;3228;-1807;-364;2394;-1559
396241;1;6;0;646;-873;3292;-2165;-156;2281;-1631
396251;1;6;0;646;-897;3394;-2389;-10;2219;-1717
396261;1;6;0;646;-839;3478;-2479;68;2257;-1751
396271;1;6;0;646;-743;3408;-2493;48;2377;-1841
396281;1;6;0;646;-631;3343;-2540;19;2521;-1914
396291;1;6;0;646;-554;3282;-2461;-20;2602;-1985
396301;1;6;0;646;-523;3260;-2302;-22;2627;-2074
396311;1;6;0;646;-571;3289;-2129;-19;2605;-2071
396321;1;6;0;646;-568;3281;-1980;-22;2442;-1993
396331;1;6;0;646;-540;3291;-1999;-13;2290;-1943
396341;1;6;0;646;-501;3274;-2161;-45;2183;-1943
396351;1;6;0;646;-489;3238;-2278;-102;2184;-2004
396361;1;6;0;646;-519;3151;-2371;-245;2269;-2141
396371;1;6;0;646;-577;3101;-2403;-363;2421;-2239
396381;1;6;0;646;-641;3094;-2374;-497;2585;-2268
396391;1;6;0;646;-670;3110;-2338;-632;2686;-2250
396401;1;6;0;646;-675;3145;-2286;-695;2706;-2209
396411;1;6;0;646;-658;3204;-2234;-726;2662;-2145
396421;1;6;0;646;-645;3260;-2241;-692;2598;-2077
396431;1;6;0;646;-670;3277;-2212;-612;2562;-2025
396441;1;6;0;646;-698;3267;-2227;-529;2559;-1979
396451;1;6;0;646;-704;3254;-2256;-471;2579;-1966
396461;1;6;0;646;-673;3256;-2341;-443;2626;-1979
396471;1;6;0;646;-628;3223;-2432;-432;2711;-2006
396481;1;6;0;646;-589;3189;-2518;-437;2825;-2013
396491;1;6;0;646;-599;3188;-2518;-466;2942;-1960
396501;1;6;0;646;-600;3217;-2430;-516;3058;-1826
396511;1;6;0;646;-597;3256;-2306;-575;3138;-1626
396521;1;6;0;646;-586;3279;-2163;-691;3156;-1428
396531;1;6;0;646;-507;3237;-2093;-794;3075;-1293
396541;1;6;0;646;-405;3200;-2015;-892;2926;-1234
396551;1;6;0;646;-344;3150;-1990;-963;2735;-1290
396561;1;6;0;646;-333;3197;-1959;-1019;2515;-1401
396571;1;6;0;646;-337;3272;-1957;-1129;2298;-1491
396581;1;6;0;646;-346;3354;-1955;-1224;2049;-1499
396591;1;6;0;647;-306;3354;-2065;-1241;1834;-1460
396601;1;6;0;647;-268;3348;-2293;-1188;1694;-1391
396611;1;6;0;647;-323;3369;-2483;-1070;1682;-1247
396621;1;6;0;647;-387;3408;-2568;-937;1767;-1024
396631;1;6;0;647;-477;3486;-2579;-831;1868;-752
396641;1;6;0;647;-519;3522;-2481;-776;1879;-513
396651;1;6;0;647;-449;3518;-2459;-773;1763;-399
396661;1;6;0;647;-337;3473;-2454;-806;1645;-416
396671;1;6;0;647;-242;3395;-2493;-861;1578;-550
396681;1;6;0;647;-205;3345;-2517;-894;1624;-674
396691;1;6;0;647;-232;3333;-2515;-892;1792;-684
396701;1;6;0;647;-222;3379;-2518;-865;1983;-599
396711;1;6;0;647;-152;3431;-2544;-843;2132;-495
396721;1;6;0;647;-47;3507;-2591;-763;2228;-432
396731;1;6;0;647;83;3635;-2646;-648;2309;-378
396741;1;6;0;647;186;3734;-2641;-491;2408;-265
396751;1;6;0;647;258;3771;-2556;-308;2532;-23
396761;1;6;0;647;351;3729;-2447;-163;2599;291
396771;1;6;0;647;415;3584;-2322;-82;2580;592
396781;1;6;0;647;405;3451;-2205;-61;2456;852
396791;1;6;0;647;258;3488;-2118;-192;2088;1049
396801;1;6;0;647;15;3677;-2136;-379;1530;1011
396811;1;6;0;647;-56;3945;-2358;-528;904;434
396821;1;6;0;647;-79;4163;-2626;-549;489;-466
396831;1;6;0;647;-306;3942;-2732;-422;517;-1143
396841;1;6;0;647;-559;3398;-2665;-92;584;-1442
396851;1;6;0;647;-749;3289;-2659;204;988;-1298
396861;1;6;0;647;-822;3267;-2512;240;1844;-963
396871;1;6;0;647;-834;3221;-2210;7;2546;-720
396881;1;6;0;647;-808;3209;-1882;-342;2811;-509
396891;1;6;0;647;-640;3116;-1640;-625;2636;-416
396901;1;6;0;647;-425;3100;-1530;-844;2276;-535
396911;1;6;0;647;-357;3069;-1527;-981;1786;-870
396921;1;6;0;647;-387;3238;-1642;-1022;1247;-1302
396931;1;6;0;647;-432;3594;-1896;-981;935;-1646
396941;1;6;0;647;-524;3904;-2179;-810;1035;-1772
396951;1;6;0;647;-588;4021;-2283;-543;1357;-1709
396961;1;6;0;647;-639;4062;-2417;-191;1883;-1532
396971;1;6;0;647;-628;3884;-2315;129;2530;-1299
396981;1;6;0;647;-607;3625;-2265;352;3096;-1124
396991;1;6;0;647;-592;3420;-2106;378;3495;-990
397001;1;6;0;647;-551;3322;-2008;256;3605;-906
397011;1;6;0;647;-431;3320;-1955;85;3534;-865
397021;1;6;0;647;-313;3418;-1936;-61;3363;-858
397031;1;6;0;647;-217;3505;-1884;-243;3151;-875
397041;1;6;0;647;-172;3563;-1852;-415;2912;-879
397051;1;6;0;647;-173;3534;-1811;-507;2734;-899
397061;1;6;0;647;-176;3485;-1839;-558;2650;-941
397071;1;6;0;647;-186;3395;-1883;-571;2660;-995
397081;1;6;0;647;-220;3309;-1963;-562;2727;-1063
397091;1;6;0;648;-226;3300;-2002;-525;2844;-1140
397101;1;6;0;648;-195;3380;-1984;-450;2980;-1165
397111;1;6;0;648;-160;3488;-1929;-378;3076;-1160
397121;1;6;0;648;-114;3570;-1850;-318;3075;-1118
397131;1;6;0;648;-39;3589;-1845;-266;2996;-1071
397141;1;6;0;648;18;3558;-1838;-252;2859;-1065
397151;1;6;0;648;33;3512;-1818;-282;2682;-1130
397161;1;6;0;648;38;3449;-1813;-288;2462;-1223
397171;1;6;0;648;53;3418;-1836;-305;2271;-1310
397181;1;6;0;648;73;3402;-1887;-319;2148;-1406
397191;1;6;0;648;62;3423;-1977;-312;2107;-1525
397201;1;6;0;648;83;3441;-2119;-322;2145;-1611
397211;1;6;0;648;112;3440;-2214;-368;2214;-1697
397221;1;6;0;648;89;3415;-2274;-448;2313;-1782
397231;1;6;0;648;32;3440;-2280;-542;2406;-1847
397241;1;6;0;648;-49;3520;-2265;-634;2463;-1886
397251;1;6;0;648;-149;3598;-2187;-729;2474;-1904
397261;1;6;0;648;-139;3605;-2071;-824;2460;-1940
397271;1;6;0;648;-80;3553;-2043;-855;2450;-2034
397281;1;6;0;648;-31;3466;-2041;-860;2451;-2182
397291;1;6;0;648;7;3400;-2134;-827;2435;-2344
397301;1;6;0;648;11;3341;-2234;-784;2426;-2491
397311;1;6;0;648;-18;3315;-2360;-745;2425;-2592
397321;1;6;0;648;-59;3358;-2422;-700;2482;-2643
397331;1;6;0;648;-83;3458;-2426;-632;2575;-2616
397341;1;6;0;648;-78;3522;-2351;-539;2721;-2543
397351;1;6;0;648;-85;3528;-2278;-421;2793;-2503
397361;1;6;0;648;-22;3562;-2202;-319;2847;-2459
397371;1;6;0;648;49;3560;-2117;-211;2895;-2360
397381;1;6;0;648;117;3503;-2124;-172;2853;-2249
397391;1;6;0;648;164;3412;-2159;-205;2828;-2168
397401;1;6;0;648;192;3347;-2255;-299;2870;-2169
397411;1;6;0;648;148;3329;-2299;-469;2960;-2195
397421;1;6;0;648;49;3401;-2284;-647;3026;-2182
397431;1;6;0;648;6;3531;-2191;-734;3058;-2085
397441;1;6;0;648;38;3662;-2091;-687;3041;-1908
397451;1;6;0;648;119;3792;-2057;-538;2971;-1700
397461;1;6;0;648;160;3928;-2115;-393;2796;-1557
397471;1;6;0;648;-4;4145;-2258;-418;2476;-1517
397481;1;6;0;648;-305;4431;-2376;-607;1888;-1483
397491;1;6;0;648;-526;4651;-2343;-794;1351;-1153
397501;1;6;0;648;-459;4521;-2173;-808;1191;-486
397511;1;6;0;648;-177;4099;-2102;-596;1497;137
397521;1;6;0;648;179;3549;-2118;-263;2059;288
397531;1;6;0;648;435;3053;-2211;78;2566;-246
397541;1;6;0;648;471;2898;-2355;236;2749;-1245
397551;1;6;0;648;285;3138;-2373;111;2633;-2097
397561;1;6;0;648;-31;3518;-2265;-105;2498;-2564
397571;1;6;0;648;-288;3846;-2108;-396;2375;-2525
397581;1;6;0;648;-556;4037;-1929;-601;2330;-2086
397591;1;6;0;649;-769;4033;-1700;-662;2323;-1556
397601;1;6;0;649;-849;3830;-1448;-564;2378;-1153
397611;1;6;0;649;-793;3543;-1253;-334;2365;-1017
397621;1;6;0;649;-671;3278;-1225;-130;2254;-1161
397631;1;6;0;649;-637;3113;-1286;-31;2068;-1387
397641;1;6;0;649;-711;3169;-1407;-87;1716;-1513
397651;1;6;0;649;-767;3388;-1474;-217;1308;-1429
397661;1;6;0;649;-746;3691;-1621;-304;983;-1118
397671;1;6;0;649;-632;3924;-1733;-282;796;-792
397681;1;6;0;649;-424;4035;-1922;-145;726;-570
397691;1;6;0;649;-234;3925;-1974;113;687;-496
397701;1;6;0;649;-183;3776;-2031;385;748;-584
397711;1;6;0;649;-210;3593;-2069;580;775;-720
397721;1;6;0;649;-285;3456;-2122;665;863;-779
397731;1;6;0;649;-349;3401;-2144;620;910;-767
397741;1;6;0;649;-421;3413;-2180;469;904;-724
397751;1;6;0;649;-459;3409;-2126;232;826;-727
397761;1;6;0;649;-415;3380;-2034;19;762;-754
397771;1;6;0;649;-345;3317;-1920;-95;740;-767
397781;1;6;0;649;-351;3261;-1822;-173;689;-800
397791;1;6;0;649;-347;3231;-1770;-218;612;-884
397801;1;6;0;649;-352;3232;-1794;-187;516;-984
397811;1;6;0;649;-366;3263;-1841;-157;453;-1031
397821;1;6;0;649;-412;3304;-1872;-135;385;-1040
397831;1;6;0;649;-476;3306;-1952;-157;318;-1004
397841;1;6;0;649;-518;3349;-2011;-143;249;-922
397851;1;6;0;649;-557;3416;-2068;-158;219;-841
397861;1;6;0;649;-580;3479;-2080;-114;162;-785
397871;1;6;0;649;-567;3507;-2079;-67;118;-758
397881;1;6;0;649;-546;3517;-2071;-22;81;-784
397891;1;6;0;649;-550;3517;-2059;4;41;-857
397901;1;6;0;649;-557;3503;-2048;-26;-3;-925
397911;1;6;0;649;-534;3521;-2031;-39;-76;-933
397921;1;6;0;649;-483;3567;-2085;-23;-166;-857
397931;1;6;0;649;-446;3600;-2122;-11;-219;-738
397941;1;6;0;649;-409;3644;-2095;-16;-256;-605
397951;1;6;0;649;-425;3623;-2060;-61;-271;-439
397961;1;6;0;649;-431;3599;-1983;-199;-328;-264
397971;1;6;0;649;-374;3558;-1929;-356;-433;-118
397981;1;6;0;649;-267;3553;-1972;-501;-599;-29
397991;1;6;0;649;-208;3579;-1999;-631;-795;60
398001;1;6;0;649;-196;3584;-2063;-677;-1022;185
398011;1;6;0;649;-212;3598;-2117;-615;-1208;364
398021;1;6;0;649;-246;3564;-2198;-478;-1299;550
398031;1;6;0;649;-248;3529;-2313;-337;-1269;628
398041;1;6;0;649;-246;3495;-2457;-223;-1171;602
398051;1;6;0;649;-228;3488;-2495;-158;-1063;511
398061;1;6;0;649;-256;3450;-2463;-136;-938;471
398071;1;6;0;649;-247;3403;-2451;-131;-853;506
398081;1;6;0;649;-151;3333;-2489;-145;-786;591
398091;1;6;0;650;-63;3267;-2567;-168;-702;617
398101;1;6;0;650;3;3257;-2598;-159;-556;576
398111;1;6;0;650;30;3327;-2656;-193;-452;420
398121;1;6;0;650;-11;3417;-2570;-194;-376;265
398131;1;6;0;650;-62;3417;-2426;-141;-345;168
398141;1;6;0;650;-109;3359;-2327;-65;-307;182
398151;1;6;0;650;-154;3258;-2273;22;-277;266
398161;1;6;0;650;-144;3196;-2253;102;-298;366
398171;1;6;0;650;-205;3251;-2225;151;-379;517
398181;1;6;0;650;-258;3463;-2183;192;-557;718
398191;1;6;0;650;-320;3757;-2112;230;-839;943
398201;1;6;0;650;-356;4086;-2113;300;-1223;999
398211;1;6;0;650;-332;4301;-2181;362;-1469;812
398221;1;6;0;650;-314;4218;-2155;417;-1495;526
398231;1;6;0;650;-395;3835;-2091;486;-1288;289
398241;1;6;0;650;-517;3497;-2067;535;-944;199
398251;1;6;0;650;-551;3404;-2022;564;-515;284
398261;1;6;0;650;-522;3401;-1936;525;-17;386
398271;1;6;0;650;-475;3363;-1764;417;337;365
398281;1;6;0;650;-405;3290;-1630;284;448;146
398291;1;6;0;650;-389;3232;-1496;127;333;-170
398301;1;6;0;650;-413;3272;-1360;-38;-17;-402
398311;1;6;0;650;-563;3357;-1224;-126;-563;-451
398321;1;6;0;650;-592;3573;-1245;-158;-1046;-391
398331;1;6;0;650;-538;3832;-1418;-140;-1345;-257
398341;1;6;0;650;-531;4099;-1636;-63;-1378;-90
398351;1;6;0;650;-555;4226;-1712;-33;-1292;21
398361;1;6;0;650;-579;4307;-1781;39;-1175;252
398371;1;6;0;650;-598;4235;-1807;170;-1035;545
398381;1;6;0;650;-555;4116;-1826;285;-925;642
398391;1;6;0;650;-450;3929;-1869;372;-831;663
398401;1;6;0;650;-411;3811;-1887;370;-768;623
398411;1;6;0;650;-398;3704;-1917;281;-746;616
398421;1;6;0;650;-384;3593;-1883;99;-750;639
398431;1;6;0;650;-372;3511;-1832;-95;-722;677
398441;1;6;0;650;-343;3427;-1758;-312;-723;714
398451;1;6;0;650;-338;3351;-1676;-462;-804;703
398461;1;6;0;650;-292;3355;-1606;-545;-945;668
398471;1;6;0;650;-217;3382;-1582;-595;-1119;624
398481;1;6;0;650;-187;3458;-1643;-593;-1236;614
398491;1;6;0;650;-166;3518;-1704;-569;-1369;634
398501;1;6;0;650;-176;3551;-1752;-515;-1489;630
398511;1;6;0;650;-234;3566;-1787;-436;-1576;639
398521;1;6;0;650;-255;3625;-1752;-384;-1596;633
398531;1;6;0;650;-263;3665;-1767;-362;-1536;622
398541;1;6;0;650;-282;3671;-1749;-347;-1461;625
398551;1;6;0;650;-249;3629;-1740;-305;-1420;620
398561;1;6;0;650;-205;3562;-1721;-219;-1415;594
398571;1;6;0;650;-174;3508;-1746;-147;-1456;521
398581;1;6;0;650;-172;3510;-1785;-141;-1530;432
398591;1;6;0;651;-163;3538;-1835;-180;-1606;358
398601;1;6;0;651;-153;3580;-1851;-223;-1657;358
398611;1;6;0;651;-134;3611;-1858;-240;-1654;413
398621;1;6;0;651;-123;3601;-1841;-209;-1594;469
398631;1;6;0;651;-84;3582;-1876;-171;-1516;478
398641;1;6;0;651;-44;3568;-1876;-137;-1406;422
398651;1;6;0;651;-32;3549;-1877;-98;-1349;349
398661;1;6;0;651;3;3543;-1894;-26;-1327;304
398671;1;6;0;651;54;3555;-1895;41;-1315;278
398681;1;6;0;651;63;3562;-1950;112;-1318;271
398691;1;6;0;651;97;3568;-1984;169;-1310;285
398701;1;6;0;651;108;3559;-2028;258;-1277;342
398711;1;6;0;651;103;3525;-2023;353;-1211;426
398721;1;6;0;651;152;3473;-2027;435;-1127;470
398731;1;6;0;651;172;3407;-2003;477;-1044;440
398741;1;6;0;651;160;3350;-1948;450;-985;365
398751;1;6;0;651;145;3388;-1881;378;-982;294
398761;1;6;0;651;74;3493;-1830;232;-1051;270
398771;1;6;0;651;36;3643;-1772;98;-1204;333
398781;1;6;0;651;22;3748;-1752;-20;-1345;415
398791;1;6;0;651;16;3780;-1720;-65;-1452;477
398801;1;6;0;651;-12;3825;-1758;-67;-1511;552
398811;1;6;0;651;-6;3855;-1757;17;-1585;652
398821;1;6;0;651;19;3858;-1804;167;-1669;721
398831;1;6;0;651;66;3906;-1889;370;-1751;728
398841;1;6;0;651;60;3973;-2008;518;-1849;687
398851;1;6;0;651;-36;4003;-2079;584;-2025;681
398861;1;6;0;651;-145;4011;-2103;582;-2238;752
398871;1;6;0;651;-229;3941;-2185;535;-2389;846
398881;1;6;0;651;-278;3831;-2258;448;-2444;904
398891;1;6;0;651;-355;3739;-2375;331;-2420;907
398901;1;6;0;651;-449;3769;-2479;147;-2384;888
398911;1;6;0;651;-604;3986;-2474;-106;-2326;892
398921;1;6;0;651;-738;4304;-2321;-502;-2217;1003
398931;1;6;0;651;-819;4526;-2005;-884;-2039;1265
398941;1;6;0;651;-829;4440;-1627;-1072;-1879;1742
398951;1;6;0;651;-593;4102;-1333;-999;-1947;2175
398961;1;6;0;651;-323;3664;-1269;-665;-2103;2392
398971;1;6;0;651;-3;3350;-1465;-190;-2266;2284
398981;1;6;0;651;217;3206;-1741;309;-2294;1991
398991;1;6;0;651;272;3208;-1986;639;-2327;1522
399001;1;6;0;651;146;3352;-2138;719;-2318;1075
399011;1;6;0;651;-43;3578;-2105;562;-2261;843
399021;1;6;0;651;-253;3668;-1894;307;-2202;868
399031;1;6;0;651;-437;3621;-1641;117;-2256;1051
399041;1;6;0;651;-561;3566;-1413;63;-2334;1237
399051;1;6;0;651;-670;3507;-1199;69;-2555;1267
399061;1;6;0;651;-775;3532;-1183;121;-2864;1102
399071;1;6;0;651;-885;3566;-1232;159;-3201;921
399081;1;6;0;651;-1004;3631;-1327;195;-3504;809
399091;1;6;0;652;-1074;3653;-1452;189;-3607;859
399101;1;6;0;652;-1124;3622;-1513;202;-3525;1052
399111;1;6;0;652;-1103;3557;-1562;153;-3350;1338
399121;1;6;0;652;-1040;3517;-1591;144;-3146;1658
399131;1;6;0;652;-947;3551;-1648;105;-3020;1931
399141;1;6;0;652;-806;3665;-1667;126;-3043;2130
399151;1;6;0;652;-760;3783;-1623;184;-3190;2200
399161;1;6;0;652;-714;3866;-1584;254;-3454;2220
399171;1;6;0;652;-681;3902;-1519;417;-3774;2237
399181;1;6;0;652;-659;3899;-1490;572;-4075;2236
399191;1;6;0;652;-689;3839;-1472;705;-4283;2259
399201;1;6;0;652;-723;3777;-1500;817;-4478;2336
399211;1;6;0;652;-758;3719;-1553;898;-4701;2488
399221;1;6;0;652;-769;3687;-1606;884;-4840;2596
399231;1;6;0;652;-800;3596;-1711;900;-5087;2730
399241;1;6;0;652;-765;3551;-1753;1077;-5615;2832
399251;1;6;0;652;-739;3503;-1873;909;-5491;2824
399261;1;6;0;652;-696;3529;-1949;925;-5570;2901
399271;1;6;0;652;-684;3588;-2022;920;-5564;3028
399281;1;6;0;652;-686;3652;-2026;888;-5513;3213
399291;1;6;0;652;-726;3728;-1973;768;-5485;3416
399301;1;6;0;652;-750;3767;-1936;620;-5544;3589
399311;1;6;0;652;-737;3777;-1859;533;-5729;3767
399321;1;6;0;652;-743;3782;-1764;491;-5964;3934
399331;1;6;0;652;-717;3766;-1698;508;-6228;4068
399341;1;6;0;652;-687;3790;-1658;556;-6482;4133
399351;1;6;0;652;-698;3793;-1639;604;-6749;4149
399361;1;6;0;652;-699;3774;-1665;636;-7046;4153
399371;1;6;0;652;-672;3735;-1701;682;-7338;4170
399381;1;6;0;652;-707;3703;-1741;703;-7557;4256
399391;1;6;0;652;-710;3643;-1750;709;-7742;4372
399401;1;6;0;652;-709;3584;-1817;719;-7876;4485
399411;1;6;0;652;-750;3532;-1839;718;-7993;4567
399421;1;6;0;652;-732;3511;-1866;714;-8142;4561
399431;1;6;0;652;-715;3526;-1926;671;-8276;4524
399441;1;6;0;652;-696;3572;-1981;579;-8365;4482
399451;1;6;0;652;-664;3627;-2052;494;-8423;4491
399461;1;6;0;652;-645;3631;-2068;455;-8432;4576
399471;1;6;0;652;-610;3633;-2091;449;-8398;4699
399481;1;6;0;652;-594;3651;-2078;463;-8332;4799
399491;1;6;0;652;-589;3650;-2040;446;-8271;4857
399501;1;6;0;652;-522;3640;-1992;375;-8195;4843
399511;1;6;0;652;-447;3605;-1964;299;-8073;4812
399521;1;6;0;652;-376;3537;-1968;235;-7987;4812
399531;1;6;0;652;-390;3484;-1957;204;-7988;4844
399541;1;6;0;652;-503;3449;-1968;166;-8168;4824
399551;1;6;0;652;-640;3406;-1981;173;-8429;4708
399561;1;6;0;652;-710;3449;-2027;202;-8618;4554
399571;1;6;0;652;-714;3539;-2082;260;-8660;4445
399581;1;6;0;652;-667;3657;-2171;297;-8540;4411
399591;1;6;0;653;-584;3709;-2237;300;-8267;4501
399601;1;6;0;653;-527;3653;-2274;295;-7959;4709
399611;1;6;0;653;-459;3558;-2273;284;-7754;4925
399621;1;6;0;653;-401;3489;-2245;216;-7665;5031
399631;1;6;0;653;-343;3465;-2180;149;-7705;4974
399641;1;6;0;653;-285;3487;-2146;80;-7806;4788
399651;1;6;0;653;-269;3503;-2132;34;-7906;4558
399661;1;6;0;653;-353;3461;-2139;18;-7975;4402
399671;1;6;0;653;-440;3471;-2163;29;-8019;4383
399681;1;6;0;653;-503;3477;-2173;41;-7998;4514
399691;1;6;0;653;-476;3430;-2216;75;-7881;4685
399701;1;6;0;653;-396;3380;-2280;80;-7683;4778
399711;1;6;0;653;-340;3382;-2298;51;-7486;4732
399721;1;6;0;653;-327;3401;-2259;-24;-7326;4599
399731;1;6;0;653;-299;3473;-2191;-123;-7245;4461
399741;1;6;0;653;-292;3549;-2150;-209;-7213;4273
399751;1;6;0;653;-316;3665;-2141;-224;-7219;4029
399761;1;6;0;653;-337;3718;-2120;-194;-7253;3769
399771;1;6;0;653;-351;3716;-2051;-132;-7208;3396
399781;1;6;0;653;-384;3684;-1941;-82;-7072;2992
399791;1;6;0;653;-449;3643;-1774;-56;-6917;2672
399801;1;6;0;653;-455;3591;-1626;-115;-6760;2492
399811;1;6;0;653;-452;3599;-1472;-190;-6655;2513
399821;1;6;0;653;-410;3617;-1382;-247;-6665;2602
399831;1;6;0;653;-344;3648;-1303;-320;-6771;2712
399841;1;6;0;653;-168;3629;-1274;-380;-6956;2667
399851;1;6;0;653;-89;3609;-1396;-445;-7157;2416
399861;1;6;0;653;-160;3570;-1521;-497;-7382;2072
399871;1;6;0;653;-299;3552;-1662;-543;-7524;1795
399881;1;6;0;653;-434;3587;-1735;-544;-7520;1636
399891;1;6;0;653;-449;3622;-1794;-478;-7335;1664
399901;1;6;0;653;-395;3664;-1829;-323;-7027;1816
399911;1;6;0;653;-351;3736;-1820;-101;-6678;2029
399921;1;6;0;653;-210;3817;-1771;108;-6337;2224
399931;1;6;0;653;-68;3821;-1726;313;-6101;2351
399941;1;6;0;653;72;3746;-1696;497;-5881;2473
399951;1;6;0;653;218;3628;-1698;628;-5664;2520
399961;1;6;0;653;296;3456;-1739;666;-5507;2444
399971;1;6;0;653;250;3358;-1777;620;-5395;2282
399981;1;6;0;653;137;3372;-1818;517;-5338;2154
399991;1;6;0;653;-15;3473;-1771;370;-5264;2094
400001;1;6;0;653;-113;3582;-1623;198;-5290;2043
400011;1;6;0;653;-157;3650;-1454;111;-5395;1993
400021;1;6;0;653;-226;3764;-1298;70;-5601;1958
400031;1;6;0;653;-247;3896;-1202;115;-5841;2063
400041;1;6;0;653;-212;3954;-1125;231;-6038;2307
400051;1;6;0;653;-137;3976;-1206;354;-6190;2533
400061;1;6;0;653;-102;3933;-1375;506;-6208;2703
400071;1;6;0;653;-100;3885;-1570;595;-6218;2778
400081;1;6;0;653;-139;3816;-1674;618;-6299;2788
400091;1;6;0;654;-153;3787;-1720;615;-6389;2720
400101;1;6;0;654;-152;3805;-1725;603;-6391;2669
400111;1;6;0;654;-122;3782;-1715;568;-6313;2614
400121;1;6;0;654;-126;3778;-1677;474;-6201;2566
400131;1;6;0;654;-157;3755;-1624;389;-6205;2496
400141;1;6;0;654;-224;3783;-1600;289;-6208;2459
400151;1;6;0;654;-256;3780;-1525;197;-6289;2467
400161;1;6;0;654;-255;3800;-1495;173;-6395;2478
400171;1;6;0;654;-256;3841;-1492;217;-6420;2565
400181;1;6;0;654;-218;3889;-1500;295;-6398;2670
400191;1;6;0;654;-214;3932;-1487;352;-6343;2791
400201;1;6;0;654;-149;3935;-1490;389;-6370;2867
400211;1;6;0;654;-67;3909;-1483;404;-6388;2861
400221;1;6;0;654;-11;3841;-1511;409;-6346;2810
400231;1;6;0;654;37;3780;-1561;412;-6327;2724
400241;1;6;0;654;-11;3679;-1550;421;-6240;2631
400251;1;6;0;654;-79;3655;-1527;424;-6245;2528
400261;1;6;0;654;-115;3705;-1484;399;-6234;2487
400271;1;6;0;654;-140;3744;-1447;369;-6197;2494
400281;1;6;0;654;-105;3803;-1425;342;-6128;2530
400291;1;6;0;654;-65;3848;-1446;345;-6037;2566
400301;1;6;0;654;-12;3877;-1445;408;-6010;2597
400311;1;6;0;654;18;3897;-1452;513;-5989;2671
400321;1;6;0;654;78;3858;-1493;642;-5954;2732
400331;1;6;0;654;107;3821;-1550;725;-5869;2760
400341;1;6;0;654;107;3749;-1648;729;-5713;2701
400351;1;6;0;654;112;3729;-1686;702;-5625;2652
400361;1;6;0;654;120;3754;-1749;667;-5469;2537
400371;1;6;0;654;134;3791;-1764;651;-5266;2427
400381;1;6;0;654;182;3781;-1722;661;-5049;2331
400391;1;6;0;654;251;3752;-1673;707;-4814;2210
400401;1;6;0;654;300;3731;-1659;727;-4506;2116
400411;1;6;0;654;294;3673;-1621;718;-4251;2056
400421;1;6;0;654;235;3636;-1582;687;-4123;2012
400431;1;6;0;654;209;3623;-1511;654;-4071;2025
400441;1;6;0;654;222;3666;-1488;623;-4016;2011
400451;1;6;0;654;263;3732;-1472;629;-3912;1943
400461;1;6;0;654;290;3815;-1516;677;-3831;1834
400471;1;6;0;654;208;3842;-1548;719;-3853;1728
400481;1;6;0;654;25;4020;-1651;736;-3980;1550
400491;1;6;0;654;-215;4271;-1650;656;-4183;1406
400501;1;6;0;654;-410;4558;-1541;572;-4424;1440
400511;1;6;0;654;-420;4663;-1403;530;-4473;1716
400521;1;6;0;654;-191;4332;-1289;663;-4202;2116
400531;1;6;0;654;10;3912;-1408;901;-3883;2252
400541;1;6;0;654;215;3565;-1698;1107;-3482;2204
400551;1;6;0;654;321;3342;-2028;1222;-3207;2010
400561;1;6;0;654;302;3259;-2244;1197;-2999;1752
400571;1;6;0;654;201;3303;-2292;998;-2867;1505
400581;1;6;0;654;60;3429;-2219;670;-2788;1322
400591;1;6;0;655;-115;3705;-2055;355;-2710;1289
400601;1;6;0;655;-215;3980;-1824;199;-2637;1441
400611;1;6;0;655;-237;4218;-1584;225;-2594;1748
400621;1;6;0;655;-130;4340;-1451;440;-2588;2013
400631;1;6;0;655;-8;4299;-1415;747;-2583;2128
400641;1;6;0;655;45;4077;-1453;1029;-2606;2149
400651;1;6;0;655;29;3848;-1604;1123;-2701;2062
400661;1;6;0;655;-34;3642;-1848;1132;-2762;1944
400671;1;6;0;655;-152;3506;-1996;1047;-2761;1827
400681;1;6;0;655;-255;3446;-2054;896;-2710;1683
400691;1;6;0;655;-366;3486;-2018;719;-2624;1591
400701;1;6;0;655;-468;3481;-1908;559;-2522;1503
400711;1;6;0;655;-509;3462;-1771;454;-2466;1384
400721;1;6;0;655;-515;3433;-1668;364;-2444;1241
400731;1;6;0;655;-559;3363;-1657;338;-2485;1102
400741;1;6;0;655;-553;3322;-1686;361;-2554;1000
400751;1;6;0;655;-599;3336;-1748;370;-2582;983
400761;1;6;0;655;-686;3397;-1845;360;-2584;1031
400771;1;6;0;655;-730;3507;-1896;306;-2606;1138
400781;1;6;0;655;-736;3619;-1886;290;-2643;1240
400791;1;6;0;655;-710;3718;-1870;304;-2689;1402
400801;1;6;0;655;-623;3792;-1844;363;-2764;1560
400811;1;6;0;655;-545;3816;-1849;475;-2844;1639
400821;1;6;0;655;-421;3742;-1905;647;-2929;1548
400831;1;6;0;655;-365;3610;-1936;819;-2981;1292
400841;1;6;0;655;-416;3520;-1967;964;-2984;993
400851;1;6;0;655;-494;3497;-1979;1007;-2935;776
400861;1;6;0;655;-555;3477;-1974;981;-2863;694
400871;1;6;0;655;-578;3500;-1905;921;-2820;792
400881;1;6;0;655;-518;3500;-1851;822;-2770;969
400891;1;6;0;655;-459;3475;-1867;704;-2734;1144
400901;1;6;0;655;-390;3467;-1878;607;-2762;1231
400911;1;6;0;655;-332;3464;-1878;552;-2854;1239
400921;1;6;0;655;-320;3479;-1876;522;-2953;1153
400931;1;6;0;655;-332;3495;-1921;511;-2996;1024
400941;1;6;0;655;-356;3508;-2013;491;-2931;919
400951;1;6;0;655;-425;3469;-2103;468;-2801;875
400961;1;6;0;655;-460;3436;-2202;434;-2642;870
400971;1;6;0;655;-464;3458;-2286;350;-2452;877
400981;1;6;0;655;-468;3514;-2272;263;-2259;923
400991;1;6;0;655;-427;3565;-2198;201;-2095;1023
401001;1;6;0;655;-304;3604;-2110;183;-1987;1116
401011;1;6;0;655;-222;3638;-2038;167;-1922;1176
401021;1;6;0;655;-171;3636;-1967;109;-1973;1135
401031;1;6;0;655;-211;3660;-1918;60;-2094;1060
401041;1;6;0;655;-218;3712;-1883;-8;-2221;1038
401051;1;6;0;655;-256;3729;-1844;-11;-2274;1103
401061;1;6;0;655;-294;3678;-1906;-70;-2228;1213
401071;1;6;0;655;-259;3598;-2018;-172;-2174;1233
401081;1;6;0;655;-233;3526;-2112;-240;-2129;1207
401091;1;6;0;656;-263;3498;-2163;-278;-2163;1149
401101;1;6;0;656;-299;3493;-2124;-290;-2247;1095
401111;1;6;0;656;-356;3569;-1984;-271;-2340;1104
401121;1;6;0;656;-384;3661;-1866;-200;-2460;1196
401131;1;6;0;656;-355;3754;-1818;-106;-2565;1378
401141;1;6;0;656;-271;3739;-1840;-5;-2632;1559
401151;1;6;0;656;-217;3660;-1947;90;-2665;1669
401161;1;6;0;656;-165;3581;-2084;125;-2657;1717
401171;1;6;0;656;-163;3478;-2247;129;-2607;1725
401181;1;6;0;656;-175;3416;-2402;124;-2507;1705
401191;1;6;0;656;-187;3400;-2431;125;-2410;1652
401201;1;6;0;656;-221;3422;-2383;145;-2281;1587
401211;1;6;0;656;-218;3509;-2254;182;-2158;1561
401221;1;6;0;656;-159;3574;-2143;228;-2093;1550
401231;1;6;0;656;-144;3583;-2047;308;-2110;1620
401241;1;6;0;656;-97;3591;-1969;427;-2295;1700
401251;1;6;0;656;-78;3574;-1944;529;-2496;1788
401261;1;6;0;656;-88;3530;-1965;608;-2752;1932
401271;1;6;0;656;-86;3552;-2031;645;-2983;2070
401281;1;6;0;656;-162;3569;-2060;575;-3142;2173
401291;1;6;0;656;-230;3587;-2134;451;-3288;2131
401301;1;6;0;656;-300;3696;-2223;380;-3294;1979
401311;1;6;0;656;-322;3728;-2270;339;-3189;1642
401321;1;6;0;656;-374;3679;-2238;349;-2932;1181
401331;1;6;0;656;-487;3609;-2122;386;-2646;766
401341;1;6;0;656;-556;3665;-1926;520;-2418;544
401351;1;6;0;656;-516;3770;-1770;632;-2275;629
401361;1;6;0;656;-329;3927;-1637;682;-2096;903
401371;1;6;0;656;-171;3982;-1508;625;-1950;1299
401381;1;6;0;656;-1;3864;-1377;499;-1983;1598
401391;1;6;0;656;201;3634;-1323;338;-2224;1611
401401;1;6;0;656;183;3429;-1390;247;-2501;1363
401411;1;6;0;656;10;3284;-1536;171;-2918;932
401421;1;6;0;656;-200;3337;-1685;201;-3290;559
401431;1;6;0;656;-310;3544;-1787;269;-3413;402
401441;1;6;0;656;-319;3812;-1883;319;-3199;518
401451;1;6;0;656;-290;4022;-1936;348;-2807;798
401461;1;6;0;656;-203;4089;-1886;319;-2407;1060
401471;1;6;0;656;-113;4061;-1808;277;-2102;1244
401481;1;6;0;656;-64;3935;-1707;226;-1961;1316
401491;1;6;0;656;-60;3787;-1573;145;-1977;1307
401501;1;6;0;656;-19;3665;-1531;53;-2065;1228
401511;1;6;0;656;-26;3620;-1575;-32;-2140;1212
401521;1;6;0;656;-23;3633;-1693;-105;-2211;1212
401531;1;6;0;656;-32;3688;-1814;-163;-2259;1226
401541;1;6;0;656;-71;3743;-1870;-212;-2252;1273
401551;1;6;0;656;-83;3796;-1893;-238;-2187;1323
401561;1;6;0;656;-69;3820;-1799;-269;-2100;1317
401571;1;6;0;656;-58;3753;-1642;-278;-2061;1298
401581;1;6;0;656;-31;3700;-1497;-241;-2099;1305
401591;1;6;0;657;1;3632;-1443;-203;-2218;1312
401601;1;6;0;657;6;3641;-1448;-195;-2427;1293
401611;1;6;0;657;76;3683;-1511;-233;-2625;1228
401621;1;6;0;657;95;3703;-1613;-280;-2762;1145
401631;1;6;0;657;30;3693;-1703;-334;-2866;1093
401641;1;6;0;657;-40;3672;-1753;-327;-2947;1046
401651;1;6;0;657;-101;3660;-1753;-310;-2926;1032
401661;1;6;0;657;-116;3653;-1766;-313;-2821;1040
401671;1;6;0;657;-105;3597;-1789;-313;-2692;1074
401681;1;6;0;657;-123;3567;-1765;-327;-2606;1106
401691;1;6;0;657;-106;3519;-1775;-361;-2565;1107
401701;1;6;0;657;-78;3509;-1805;-373;-2573;1070
401711;1;6;0;657;-67;3536;-1788;-355;-2563;1084
401721;1;6;0;657;-24;3532;-1784;-341;-2552;1081
401731;1;6;0;657;6;3604;-1828;-336;-2523;1074
401741;1;6;0;657;-15;3701;-1846;-323;-2541;1129
401751;1;6;0;657;-43;3815;-1831;-281;-2603;1285
401761;1;6;0;657;-12;3890;-1763;-196;-2647;1496
401771;1;6;0;657;85;3881;-1711;-101;-2635;1625
401781;1;6;0;657;192;3836;-1689;-31;-2561;1616
401791;1;6;0;657;231;3712;-1716;-2;-2500;1512
401801;1;6;0;657;197;3580;-1780;-12;-2549;1365
401811;1;6;0;657;79;3518;-1783;-36;-2659;1330
401821;1;6;0;657;15;3543;-1815;-55;-2765;1340
401831;1;6;0;657;81;3591;-1813;-32;-2737;1350
401841;1;6;0;657;164;3620;-1856;6;-2597;1313
401851;1;6;0;657;208;3652;-1897;72;-2453;1250
401861;1;6;0;657;186;3663;-1924;122;-2358;1196
401871;1;6;0;657;147;3660;-1954;166;-2248;1173
401881;1;6;0;657;134;3657;-1943;186;-2146;1127
401891;1;6;0;657;153;3677;-1945;228;-2009;1080
401901;1;6;0;657;169;3683;-1900;238;-1870;1053
401911;1;6;0;657;168;3605;-1862;207;-1725;984
401921;1;6;0;657;165;3516;-1784;162;-1643;897
401931;1;6;0;657;120;3471;-1820;74;-1652;800
401941;1;6;0;657;81;3518;-1798;-35;-1696;756
401951;1;6;0;657;110;3628;-1815;-105;-1750;764
401961;1;6;0;657;171;3727;-1792;-92;-1714;782
401971;1;6;0;657;258;3770;-1815;-4;-1676;741
401981;1;6;0;657;269;3822;-1858;115;-1619;706
401991;1;6;0;657;241;3819;-1892;213;-1588;675
402001;1;6;0;657;209;3820;-1891;301;-1561;672
402011;1;6;0;657;205;3868;-1913;336;-1447;765
402021;1;6;0;657;235;3907;-1910;339;-1317;846
402031;1;6;0;657;287;3935;-1932;324;-1188;908
402041;1;6;0;657;321;3925;-1926;306;-1091;907
402051;1;6;0;657;349;3909;-1902;296;-1061;844
402061;1;6;0;657;353;3893;-1877;244;-1095;778
402071;1;6;0;657;349;3882;-1861;186;-1159;733
402081;1;6;0;657;301;3931;-1863;101;-1199;667
402091;1;6;0;658;178;4023;-1859;-40;-1263;580
402101;1;6;0;658;25;4145;-1794;-190;-1391;484
402111;1;6;0;658;-175;4231;-1641;-362;-1545;454
402121;1;6;0;658;-319;4232;-1461;-415;-1748;563
402131;1;6;0;658;-333;4117;-1382;-363;-1936;762
402141;1;6;0;658;-222;3939;-1428;-207;-2015;925
402151;1;6;0;658;-76;3767;-1591;-3;-1939;982
402161;1;6;0;658;99;3657;-1811;171;-1785;890
402171;1;6;0;658;189;3650;-2011;266;-1608;704
402181;1;6;0;658;200;3677;-2143;259;-1481;563
402191;1;6;0;658;140;3722;-2120;174;-1418;544
402201;1;6;0;658;14;3750;-1976;51;-1419;684
402211;1;6;0;658;-81;3772;-1714;-65;-1447;915
402221;1;6;0;658;-94;3723;-1528;-114;-1492;1135
402231;1;6;0;658;-92;3661;-1463;-94;-1534;1232
402241;1;6;0;658;-133;3652;-1520;-61;-1651;1170
402251;1;6;0;658;-186;3623;-1600;-23;-1828;1029
402261;1;6;0;658;-226;3613;-1622;-8;-1986;888
402271;1;6;0;658;-275;3606;-1603;5;-2035;835
402281;1;6;0;658;-303;3553;-1544;7;-2003;847
402291;1;6;0;658;-332;3507;-1513;6;-1964;891
402301;1;6;0;658;-378;3472;-1511;-18;-1959;917
402311;1;6;0;658;-432;3450;-1506;-39;-2057;878
402321;1;6;0;658;-505;3468;-1507;-62;-2235;811
402331;1;6;0;658;-560;3474;-1483;-73;-2446;717
402341;1;6;0;658;-606;3567;-1604;3;-2714;614
402351;1;6;0;658;-621;3617;-1630;51;-2779;619
402361;1;6;0;658;-656;3708;-1686;182;-2902;671
402371;1;6;0;658;-644;3787;-1691;305;-2968;816
402381;1;6;0;658;-612;3825;-1675;405;-2970;1007
402391;1;6;0;658;-542;3767;-1712;477;-2978;1165
402401;1;6;0;658;-452;3681;-1789;501;-3031;1243
402411;1;6;0;658;-389;3586;-1851;527;-3159;1210
402421;1;6;0;658;-337;3529;-1908;542;-3291;1104
402431;1;6;0;658;-300;3511;-1972;563;-3377;1028
402441;1;6;0;658;-331;3527;-2038;549;-3415;1029
402451;1;6;0;658;-333;3553;-2067;540;-3435;1073
402461;1;6;0;658;-315;3639;-2073;546;-3435;1202
402471;1;6;0;658;-263;3715;-2031;545;-3392;1331
402481;1;6;0;658;-204;3706;-1982;550;-3364;1429
402491;1;6;0;658;-188;3606;-1923;562;-3358;1474
402501;1;6;0;658;-186;3496;-1885;516;-3333;1458
402511;1;6;0;658;-192;3399;-1882;457;-3318;1398
402521;1;6;0;658;-260;3387;-1895;385;-3334;1298
402531;1;6;0;658;-284;3389;-1902;336;-3362;1232
402541;1;6;0;658;-303;3432;-1932;313;-3411;1225
402551;1;6;0;658;-347;3500;-1950;319;-3443;1261
402561;1;6;0;658;-337;3566;-1968;371;-3463;1336
402571;1;6;0;658;-352;3640;-2007;437;-3479;1418
402581;1;6;0;658;-334;3689;-2005;501;-3498;1488
402591;1;6;0;659;-292;3691;-1987;543;-3495;1491
402601;1;6;0;659;-305;3684;-1960;564;-3482;1497
402611;1;6;0;659;-301;3633;-1962;569;-3511;1479
402621;1;6;0;659;-285;3572;-1964;575;-3570;1416
402631;1;6;0;659;-294;3548;-1966;565;-3611;1359
402641;1;6;0;659;-330;3521;-1926;516;-3679;1327
402651;1;6;0;659;-357;3541;-1910;476;-3745;1336
402661;1;6;0;659;-378;3549;-1931;401;-3799;1391
402671;1;6;0;659;-352;3543;-1933;333;-3826;1493
402681;1;6;0;659;-308;3519;-1969;286;-3807;1586
402691;1;6;0;659;-301;3495;-2019;240;-3783;1672
402701;1;6;0;659;-266;3500;-2024;201;-3786;1690
402711;1;6;0;659;-255;3485;-2037;127;-3801;1622
402721;1;6;0;659;-269;3481;-2038;66;-3832;1520
402731;1;6;0;659;-324;3499;-2060;-12;-3853;1438
402741;1;6;0;659;-401;3545;-2054;-45;-3892;1411
402751;1;6;0;659;-460;3581;-2068;-37;-3915;1418
402761;1;6;0;659;-500;3611;-2095;18;-3872;1462
402771;1;6;0;659;-486;3655;-2118;63;-3806;1496
402781;1;6;0;659;-445;3676;-2118;68;-3691;1517
402791;1;6;0;659;-395;3608;-2126;78;-3591;1549
402801;1;6;0;659;-397;3493;-2179;79;-3488;1601
402811;1;6;0;659;-385;3442;-2221;54;-3382;1651
402821;1;6;0;659;-398;3401;-2272;-5;-3299;1681
402831;1;6;0;659;-405;3424;-2266;-79;-3262;1639
402841;1;6;0;659;-382;3474;-2193;-198;-3254;1574
402851;1;6;0;659;-348;3479;-2126;-260;-3247;1542
402861;1;6;0;659;-293;3516;-2113;-257;-3220;1546
402871;1;6;0;659;-203;3515;-2161;-195;-3109;1563
402881;1;6;0;659;-168;3550;-2250;-111;-2928;1538
402891;1;6;0;659;-165;3546;-2285;-70;-2710;1475
402901;1;6;0;659;-218;3541;-2293;-67;-2533;1446
402911;1;6;0;659;-297;3544;-2282;-109;-2456;1459
402921;1;6;0;659;-338;3584;-2246;-209;-2449;1499
402931;1;6;0;659;-410;3658;-2159;-291;-2514;1507
402941;1;6;0;659;-503;3764;-2010;-338;-2667;1433
402951;1;6;0;659;-533;3911;-1944;-371;-2811;1237
402961;1;6;0;659;-510;3988;-1937;-382;-2868;882
402971;1;6;0;659;-456;3983;-1978;-364;-2755;478
402981;1;6;0;659;-475;3885;-1946;-329;-2595;103
402991;1;6;0;659;-616;3850;-1851;-295;-2457;6
403001;1;6;0;659;-738;3835;-1687;-235;-2326;249
403011;1;6;0;659;-712;3819;-1603;-187;-2208;706
403021;1;6;0;659;-602;3731;-1505;-158;-2132;1084
403031;1;6;0;659;-493;3507;-1499;-187;-2179;1194
403041;1;6;0;659;-367;3333;-1607;-275;-2224;1000
403051;1;6;0;659;-268;3210;-1693;-388;-2215;653
403061;1;6;0;659;-256;3136;-1821;-427;-2224;251
403071;1;6;0;659;-347;3237;-1874;-403;-2279;-38
403081;1;6;0;659;-433;3381;-1819;-366;-2228;-174
403091;1;6;0;660;-454;3574;-1696;-387;-2022;-214
403101;1;6;0;660;-441;3745;-1572;-432;-1758;-132
403111;1;6;0;660;-487;3758;-1458;-462;-1603;-14
403121;1;6;0;660;-504;3783;-1362;-464;-1600;49
403131;1;6;0;660;-485;3735;-1316;-444;-1633;69
403141;1;6;0;660;-453;3739;-1316;-410;-1656;77
403151;1;6;0;660;-388;3734;-1443;-341;-1649;77
403161;1;6;0;660;-356;3702;-1596;-240;-1578;96
403171;1;6;0;660;-386;3655;-1743;-189;-1468;109
403181;1;6;0;660;-428;3627;-1855;-170;-1373;74
403191;1;6;0;660;-505;3681;-1859;-203;-1218;53
403201;1;6;0;660;-551;3733;-1795;-263;-1091;26
403211;1;6;0;660;-577;3777;-1715;-376;-1029;-9
403221;1;6;0;660;-590;3831;-1631;-487;-1058;-10
403231;1;6;0;660;-564;3854;-1536;-593;-1141;65
403241;1;6;0;660;-512;3893;-1430;-666;-1214;193
403251;1;6;0;660;-429;3901;-1351;-658;-1265;336
403261;1;6;0;660;-372;3918;-1345;-617;-1376;418
403271;1;6;0;660;-304;3920;-1368;-542;-1510;424
403281;1;6;0;660;-283;3887;-1434;-455;-1616;370
403291;1;6;0;660;-334;3833;-1540;-361;-1704;276
403301;1;6;0;660;-317;3807;-1666;-320;-1711;142
403311;1;6;0;660;-355;3719;-1697;-342;-1603;22
403321;1;6;0;660;-429;3670;-1782;-351;-1500;-221
403331;1;6;0;660;-382;3740;-1815;-451;-1385;-328
403341;1;6;0;660;-446;3620;-1783;-623;-1163;-305
403351;1;6;0;660;-568;3570;-1713;-736;-1010;-358
403361;1;6;0;660;-594;3621;-1660;-774;-982;-392
403371;1;6;0;660;-576;3747;-1555;-722;-934;-417
403381;1;6;0;660;-509;3790;-1426;-575;-932;-441
403391;1;6;0;660;-392;3862;-1380;-380;-946;-407
403401;1;6;0;660;-337;3860;-1380;-220;-853;-361
403411;1;6;0;660;-264;3803;-1447;-55;-735;-349
403421;1;6;0;660;-212;3807;-1517;69;-650;-371
403431;1;6;0;660;-170;3813;-1554;147;-550;-359
403441;1;6;0;660;-177;3782;-1536;156;-392;-345
403451;1;6;0;660;-228;3721;-1582;89;-206;-279
403461;1;6;0;660;-241;3665;-1584;-1;45;-251
403471;1;6;0;660;-325;3568;-1717;2;192;-365
403481;1;6;0;660;-329;3654;-1799;43;314;-555
403491;1;6;0;660;-314;3687;-1714;164;465;-742
403501;1;6;0;660;-314;3681;-1664;301;655;-803
403511;1;6;0;660;-291;3536;-1581;349;868;-794
403521;1;6;0;660;-356;3453;-1558;243;1209;-908
403531;1;6;0;660;-433;3429;-1690;169;1230;-1128
403541;1;6;0;660;-453;3605;-1850;76;1054;-1393
403551;1;6;0;660;-578;3834;-1763;-69;857;-1648
403561;1;6;0;660;-909;4070;-1678;-102;645;-1909
403571;1;6;0;660;-1067;4165;-1451;-53;459;-1876
403581;1;6;0;660;-1161;4073;-1456;35;309;-1513
403591;1;6;0;661;-959;3915;-1341;103;383;-952
403601;1;6;0;661;-727;3632;-1260;178;558;-618
403611;1;6;0;661;-481;3457;-1360;315;556;-602
403621;1;6;0;661;-318;3450;-1514;491;432;-851
403631;1;6;0;661;-297;3527;-1676;602;345;-1193
403641;1;6;0;661;-417;3657;-1878;612;370;-1392
403651;1;6;0;661;-554;3764;-1953;532;488;-1354
403661;1;6;0;661;-661;3740;-1978;384;647;-1192
403671;1;6;0;661;-760;3629;-1944;217;794;-990
403681;1;6;0;661;-746;3544;-1854;41;835;-931
403691;1;6;0;661;-756;3490;-1772;-20;766;-936
403701;1;6;0;661;-833;3392;-1751;39;633;-944
403711;1;6;0;661;-818;3477;-1824;162;461;-1034
403721;1;6;0;661;-759;3621;-1796;256;355;-1077
403731;1;6;0;661;-814;3616;-1837;357;284;-1153
403741;1;6;0;661;-829;3559;-1846;401;340;-1166
403751;1;6;0;661;-773;3473;-1842;341;423;-1041
403761;1;6;0;661;-729;3460;-1866;182;458;-1018
403771;1;6;0;661;-700;3462;-1843;68;254;-1100
403781;1;6;0;661;-777;3443;-1784;35;127;-1159
403791;1;6;0;661;-898;3424;-1761;84;11;-1187
403801;1;6;0;661;-953;3413;-1778;178;-50;-1149
403811;1;6;0;661;-985;3476;-1775;243;-61;-1142
403821;1;6;0;661;-961;3536;-1700;274;-109;-1196
403831;1;6;0;661;-1005;3569;-1673;250;-97;-1247
403841;1;6;0;661;-1090;3516;-1736;291;-107;-1172
403851;1;6;0;661;-1067;3437;-1779;334;-230;-1012
403861;1;6;0;661;-1008;3423;-1894;411;-388;-794
403871;1;6;0;661;-885;3548;-1826;431;-450;-686
403881;1;6;0;661;-885;3590;-1694;340;-115;-694
403891;1;6;0;661;-836;3647;-1724;443;-150;-606
403901;1;6;0;661;-923;3512;-1735;394;29;-363
403911;1;6;0;661;-916;3385;-1750;214;86;-288
403921;1;6;0;661;-889;3301;-1840;61;25;-330
403931;1;6;0;661;-751;3267;-1988;-29;-192;-530
403941;1;6;0;661;-746;3332;-2084;-28;-288;-772
403951;1;6;0;661;-879;3419;-2062;-18;-254;-964
403961;1;6;0;661;-979;3547;-2056;-81;-200;-1146
403971;1;6;0;661;-1129;3598;-2009;-138;-258;-1245
403981;1;6;0;661;-1211;3705;-1958;-156;-460;-1286
403991;1;6;0;661;-1263;3690;-1882;-221;-422;-1182
404001;1;6;0;661;-1297;3612;-1800;-204;-504;-995
404011;1;6;0;661;-1219;3538;-1703;-172;-587;-813
404021;1;6;0;661;-1153;3425;-1717;-130;-687;-753
404031;1;6;0;661;-1005;3338;-1792;-67;-818;-759
404041;1;6;0;661;-979;3310;-1890;-66;-797;-872
404051;1;6;0;661;-954;3351;-1968;-26;-722;-988
404061;1;6;0;661;-987;3363;-1990;19;-613;-1054
404071;1;6;0;661;-1053;3377;-1964;-4;-401;-1110
404081;1;6;0;661;-1284;3020;-2015;-27;-294;-1194
404091;1;6;0;662;-950;3490;-2008;25;-792;-1344
404101;1;6;0;662;-1137;3455;-1818;-128;-314;-1360
404111;1;6;0;662;-1201;3389;-1862;-146;-355;-1324
404121;1;6;0;662;-1132;3299;-1803;-184;-344;-1260
404131;1;6;0;662;-1068;3283;-1797;-226;-373;-1263
404141;1;6;0;662;-1111;3236;-1831;-235;-475;-1390
404151;1;6;0;662;-1117;3414;-1909;-157;-595;-1607
404161;1;6;0;662;-1167;3593;-2019;-144;-579;-1647
404171;1;6;0;662;-1342;3591;-1973;-118;-538;-1639
404181;1;6;0;662;-1407;3628;-1956;-76;-450;-1517
404191;1;6;0;662;-1348;3645;-1878;-30;-370;-1315
404201;1;6;0;662;-1290;3511;-1838;-31;-250;-1179
404211;1;6;0;662;-1201;3425;-1834;8;-159;-1124
404221;1;6;0;662;-1152;3362;-1845;61;-95;-1155
404231;1;6;0;662;-1189;3311;-1867;84;-54;-1237
404241;1;6;0;662;-1222;3265;-1841;93;-35;-1281
404251;1;6;0;662;-1281;3279;-1826;49;-38;-1295
404261;1;6;0;662;-1358;3268;-1792;-32;-28;-1285
404271;1;6;0;662;-1398;3219;-1825;-71;-107;-1259
404281;1;6;0;662;-1403;3233;-1890;-79;-207;-1283
404291;1;6;0;662;-1380;3290;-1892;-63;-243;-1342
404301;1;6;0;662;-1369;3341;-1888;-44;-243;-1446
404311;1;6;0;662;-1371;3398;-1877;-27;-236;-1528
404321;1;6;0;662;-1374;3420;-1838;-69;-243;-1506
404331;1;6;0;662;-1374;3392;-1803;-154;-203;-1439
404341;1;6;0;662;-1392;3292;-1800;-211;-166;-1387
404351;1;6;0;662;-1389;3222;-1788;-210;-153;-1412
404361;1;6;0;662;-1413;3225;-1809;-202;-123;-1486
404371;1;6;0;662;-1478;3203;-1810;-210;-92;-1594
404381;1;6;0;662;-1498;3231;-1825;-197;-100;-1717
404391;1;6;0;662;-1558;3287;-1846;-195;-121;-1782
404401;1;6;0;662;-1663;3343;-1893;-174;-118;-1769
404411;1;6;0;662;-1703;3401;-1899;-150;-102;-1654
404421;1;6;0;662;-1728;3372;-1885;-94;-57;-1485
404431;1;6;0;662;-1705;3320;-1875;-83;1;-1365
404441;1;6;0;662;-1654;3236;-1889;-68;84;-1282
404451;1;6;0;662;-1549;3156;-1839;-68;163;-1294
404461;1;6;0;662;-1475;3110;-1823;-90;238;-1384
404471;1;6;0;662;-1498;3078;-1836;-111;263;-1480
404481;1;6;0;662;-1620;3071;-1831;-166;243;-1524
404491;1;6;0;662;-1697;3089;-1815;-205;160;-1531
404501;1;6;0;662;-1816;3149;-1803;-234;87;-1495
404511;1;6;0;662;-1861;3144;-1743;-210;-2;-1401
404521;1;6;0;662;-1796;3163;-1738;-99;-51;-1306
404531;1;6;0;662;-1677;3160;-1779;-55;-49;-1274
404541;1;6;0;662;-1577;3113;-1804;15;-5;-1301
404551;1;6;0;662;-1535;3105;-1870;12;83;-1368
404561;1;6;0;662;-1576;3087;-1883;-29;146;-1424
404571;1;6;0;662;-1692;3093;-1890;-89;165;-1402
404581;1;6;0;662;-1878;3107;-1856;-163;110;-1309
404591;1;6;0;663;-2030;3127;-1841;-200;-43;-1201
404601;1;6;0;663;-2054;3179;-1827;-228;-217;-1104
404611;1;6;0;663;-2016;3206;-1853;-252;-388;-1063
404621;1;6;0;663;-1926;3199;-1877;-295;-519;-1080
404631;1;6;0;663;-1830;3181;-1937;-332;-617;-1108
404641;1;6;0;663;-1719;3183;-1982;-354;-646;-1102
404651;1;6;0;663;-1704;3130;-2018;-357;-570;-1025
404661;1;6;0;663;-1682;3109;-2013;-301;-427;-913
404671;1;6;0;663;-1690;3081;-1979;-235;-254;-846
404681;1;6;0;663;-1724;3024;-1942;-172;-86;-869
404691;1;6;0;663;-1771;2970;-1933;-131;22;-964
404701;1;6;0;663;-1793;2926;-1926;-133;66;-1125
404711;1;6;0;663;-1844;2929;-1943;-166;40;-1305
404721;1;6;0;663;-1919;2892;-1962;-197;-15;-1386
404731;1;6;0;663;-1992;2898;-1975;-239;-62;-1354
404741;1;6;0;663;-1987;2962;-1933;-247;-78;-1227
404751;1;6;0;663;-1955;2994;-1898;-219;-71;-1097
404761;1;6;0;663;-1916;3013;-1861;-184;-106;-1018
404771;1;6;0;663;-1839;3035;-1826;-114;-133;-986
404781;1;6;0;663;-1806;3039;-1823;-95;-101;-1012
404791;1;6;0;663;-1788;3013;-1811;-79;-27;-1034
404801;1;6;0;663;-1805;2992;-1838;-79;19;-1043
404811;1;6;0;663;-1876;2976;-1814;-100;19;-1045
404821;1;6;0;663;-1920;2979;-1786;-120;-49;-1028
404831;1;6;0;663;-1923;2980;-1756;-151;-156;-993
404841;1;6;0;663;-1922;2969;-1815;-161;-242;-993
404851;1;6;0;663;-1913;2968;-1873;-186;-319;-1019
404861;1;6;0;663;-1923;3021;-1962;-227;-341;-1066
404871;1;6;0;663;-1973;3054;-2011;-257;-316;-1091
404881;1;6;0;663;-2023;3061;-2002;-273;-254;-1057
404891;1;6;0;663;-2040;3027;-1950;-281;-209;-1028
404901;1;6;0;663;-2069;3012;-1864;-265;-167;-1008
404911;1;6;0;663;-2031;2943;-1869;-290;-141;-1038
404921;1;6;0;663;-1973;2925;-1847;-304;-135;-1131
404931;1;6;0;663;-1944;2955;-1865;-306;-120;-1226
404941;1;6;0;663;-1968;3008;-1923;-295;-124;-1276
404951;1;6;0;663;-2062;3065;-1890;-282;-143;-1231
404961;1;6;0;663;-2103;3062;-1854;-288;-147;-1124
404971;1;6;0;663;-2101;3016;-1846;-293;-141;-1030
404981;1;6;0;663;-2074;2974;-1837;-274;-138;-996
404991;1;6;0;663;-2013;2936;-1862;-253;-133;-1023
405001;1;6;0;663;-1983;2933;-1871;-238;-107;-1072
405011;1;6;0;663;-2004;2923;-1867;-214;-80;-1084
405021;1;6;0;663;-2000;2924;-1846;-226;-56;-1078
405031;1;6;0;663;-2010;2934;-1888;-234;-50;-1058
405041;1;6;0;663;-2039;2968;-1918;-247;-40;-1006
405051;1;6;0;663;-2080;2974;-1899;-231;-17;-906
405061;1;6;0;663;-2109;2997;-1918;-240;-7;-791
405071;1;6;0;663;-2148;3018;-1893;-242;-19;-700
405081;1;6;0;663;-2138;3042;-1845;-281;-39;-665
405091;1;6;0;664;-2158;3080;-1820;-322;-78;-686
405101;1;6;0;664;-2186;3105;-1775;-357;-83;-674
405111;1;6;0;664;-2196;3109;-1712;-383;-55;-565
405121;1;6;0;664;-2210;3044;-1682;-367;-20;-386
405131;1;6;0;664;-2168;2939;-1659;-333;-11;-229
405141;1;6;0;664;-2040;2839;-1682;-270;-20;-153
405151;1;6;0;664;-1955;2729;-1712;-227;-35;-187
405161;1;6;0;664;-1940;2690;-1739;-221;-68;-308
405171;1;6;0;664;-2001;2702;-1767;-237;-120;-443
405181;1;6;0;664;-2128;2724;-1779;-267;-204;-538
405191;1;6;0;664;-2238;2790;-1772;-283;-323;-593
405201;1;6;0;664;-2325;2879;-1765;-306;-446;-553
405211;1;6;0;664;-2327;2931;-1758;-292;-553;-454
405221;1;6;0;664;-2272;2957;-1766;-259;-579;-341
405231;1;6;0;664;-2190;2941;-1766;-230;-563;-274
405241;1;6;0;664;-2141;2920;-1766;-228;-512;-269
405251;1;6;0;664;-2140;2886;-1774;-207;-456;-271
405261;1;6;0;664;-2162;2861;-1765;-191;-374;-292
405271;1;6;0;664;-2213;2896;-1762;-157;-318;-301
405281;1;6;0;664;-2275;2885;-1761;-136;-299;-277
405291;1;6;0;664;-2295;2887;-1740;-141;-315;-267
405301;1;6;0;664;-2290;2881;-1758;-163;-366;-284
405311;1;6;0;664;-2264;2827;-1794;-203;-418;-307
405321;1;6;0;664;-2258;2823;-1797;-223;-454;-338
405331;1;6;0;664;-2231;2844;-1811;-222;-469;-331
405341;1;6;0;664;-2234;2847;-1851;-188;-441;-299
405351;1;6;0;664;-2233;2847;-1857;-114;-385;-265
405361;1;6;0;664;-2208;2856;-1858;-32;-294;-240
405371;1;6;0;664;-2180;2856;-1837;8;-189;-243
405381;1;6;0;664;-2158;2851;-1834;24;-102;-265
405391;1;6;0;664;-2159;2833;-1832;19;-52;-283
405401;1;6;0;664;-2195;2809;-1845;-13;-26;-307
405411;1;6;0;664;-2193;2801;-1818;-59;-30;-338
405421;1;6;0;664;-2221;2844;-1786;-111;-67;-363
405431;1;6;0;664;-2279;2873;-1762;-136;-129;-344
405441;1;6;0;664;-2283;2899;-1767;-140;-191;-296
405451;1;6;0;664;-2292;2933;-1747;-134;-233;-231
405461;1;6;0;664;-2281;2938;-1750;-114;-238;-158
405471;1;6;0;664;-2216;2910;-1777;-110;-193;-103
405481;1;6;0;664;-2162;2821;-1785;-85;-93;-77
405491;1;6;0;664;-2130;2776;-1804;-79;4;-135
405501;1;6;0;664;-2094;2756;-1803;-77;69;-227
405511;1;6;0;664;-2149;2765;-1809;-99;89;-314
405521;1;6;0;664;-2216;2779;-1782;-129;51;-382
405531;1;6;0;664;-2276;2831;-1777;-165;-11;-382
405541;1;6;0;664;-2332;2848;-1774;-182;-39;-323
405551;1;6;0;664;-2344;2867;-1770;-206;-54;-245
405561;1;6;0;664;-2319;2843;-1746;-166;-75;-171
405571;1;6;0;664;-2264;2834;-1736;-146;-93;-126
405581;1;6;0;664;-2178;2813;-1743;-122;-110;-135
