timestamp;subject_id;activity;label;seq;ax;ay;az;gx;gy;gz
473091;1;6;0;800;-2097;3149;-1401;-322;44;-53
473101;1;6;0;800;-2088;3142;-1422;-293;92;-55
473111;1;6;0;800;-2128;3133;-1419;-259;112;-50
473121;1;6;0;800;-2141;3122;-1400;-223;84;-57
473131;1;6;0;800;-2190;3122;-1410;-225;45;-68
473141;1;6;0;800;-2210;3143;-1421;-252;-5;-66
473151;1;6;0;800;-2207;3162;-1417;-274;-46;-40
473161;1;6;0;800;-2172;3165;-1417;-260;-32;19
473171;1;6;0;800;-2158;3151;-1417;-232;18;68
473181;1;6;0;800;-2133;3145;-1438;-206;100;106
473191;1;6;0;800;-2096;3126;-1442;-169;171;120
473201;1;6;0;800;-2093;3143;-1469;-146;218;107
473211;1;6;0;800;-2142;3158;-1440;-161;220;91
473221;1;6;0;800;-2173;3184;-1418;-187;198;110
473231;1;6;0;800;-2189;3218;-1421;-183;192;164
473241;1;6;0;800;-2203;3192;-1438;-172;246;286
473251;1;6;0;800;-2190;3139;-1456;-137;329;440
473261;1;6;0;800;-2138;3061;-1456;-86;403;562
473271;1;6;0;800;-2049;2993;-1473;-70;483;617
473281;1;6;0;800;-2001;2926;-1499;-72;524;591
473291;1;6;0;800;-1984;2923;-1500;-88;488;511
473301;1;6;0;800;-2035;2933;-1513;-128;385;442
473311;1;6;0;800;-2076;2955;-1480;-152;243;380
473321;1;6;0;800;-2143;3003;-1374;-148;106;344
473331;1;6;0;800;-2181;3102;-1373;-114;-21;309
473341;1;6;0;800;-2242;3228;-1353;-74;-62;357
473351;1;6;0;800;-2281;3355;-1373;-14;-38;530
473361;1;6;0;800;-2257;3392;-1420;-7;19;793
473371;1;6;0;800;-2168;3339;-1418;7;73;1011
473381;1;6;0;800;-2103;3274;-1406;20;66;1140
473391;1;6;0;800;-2066;3194;-1353;38;-28;1149
473401;1;6;0;800;-2048;3167;-1335;6;-105;1066
473411;1;6;0;800;-2072;3193;-1356;-39;-184;1018
473421;1;6;0;800;-2127;3220;-1354;-62;-261;1034
473431;1;6;0;800;-2158;3261;-1410;-59;-312;1116
473441;1;6;0;800;-2178;3301;-1460;-41;-315;1251
473451;1;6;0;800;-2144;3342;-1533;-24;-284;1397
473461;1;6;0;800;-2109;3329;-1534;-5;-250;1525
473471;1;6;0;800;-2079;3235;-1547;-4;-201;1614
473481;1;6;0;800;-2039;3191;-1517;25;-206;1633
473491;1;6;0;800;-1988;3176;-1476;64;-220;1602
473501;1;6;0;800;-1949;3161;-1440;90;-235;1539
473511;1;6;0;800;-1932;3192;-1455;140;-228;1486
473521;1;6;0;800;-1939;3245;-1497;149;-228;1450
473531;1;6;0;800;-1948;3304;-1547;143;-203;1472
473541;1;6;0;800;-1924;3337;-1553;122;-173;1541
473551;1;6;0;800;-1894;3371;-1507;106;-159;1660
473561;1;6;0;800;-1806;3378;-1504;116;-80;1713
473571;1;6;0;800;-1749;3347;-1478;121;38;1730
473581;1;6;0;800;-1734;3302;-1488;149;117;1691
473591;1;6;0;801;-1729;3258;-1461;164;152;1604
473601;1;6;0;801;-1773;3269;-1421;130;52;1466
473611;1;6;0;801;-1866;3345;-1382;78;-150;1310
473621;1;6;0;801;-1915;3491;-1400;-8;-345;1205
473631;1;6;0;801;-1920;3600;-1456;-59;-414;1233
473641;1;6;0;801;-1892;3611;-1470;-38;-353;1379
473651;1;6;0;801;-1814;3588;-1498;31;-199;1566
473661;1;6;0;801;-1705;3531;-1481;122;-37;1731
473671;1;6;0;801;-1641;3427;-1474;200;82;1841
473681;1;6;0;801;-1506;3327;-1492;280;75;1873
473691;1;6;0;801;-1457;3290;-1483;303;68;1816
473701;1;6;0;801;-1470;3241;-1506;323;75;1720
473711;1;6;0;801;-1482;3243;-1515;350;129;1638
473721;1;6;0;801;-1531;3283;-1528;352;173;1566
473731;1;6;0;801;-1569;3351;-1532;305;172;1487
473741;1;6;0;801;-1584;3418;-1489;255;172;1466
473751;1;6;0;801;-1590;3408;-1462;216;181;1487
473761;1;6;0;801;-1573;3409;-1493;181;166;1528
473771;1;6;0;801;-1490;3425;-1477;174;126;1532
473781;1;6;0;801;-1410;3426;-1486;202;143;1536
473791;1;6;0;801;-1350;3411;-1508;263;203;1519
473801;1;6;0;801;-1311;3427;-1588;334;266;1444
473811;1;6;0;801;-1281;3448;-1620;415;275;1372
473821;1;6;0;801;-1274;3478;-1651;480;259;1279
473831;1;6;0;801;-1266;3498;-1611;503;287;1208
473841;1;6;0;801;-1327;3542;-1563;492;316;1160
473851;1;6;0;801;-1319;3539;-1508;451;300;1144
473861;1;6;0;801;-1336;3539;-1484;417;308;1135
473871;1;6;0;801;-1321;3595;-1506;462;290;1227
473881;1;6;0;801;-1270;3598;-1511;499;295;1329
473891;1;6;0;801;-1258;3573;-1555;520;325;1408
473901;1;6;0;801;-1189;3561;-1599;557;381;1453
473911;1;6;0;801;-1117;3533;-1641;569;444;1499
473921;1;6;0;801;-1064;3510;-1662;573;511;1497
473931;1;6;0;801;-1002;3498;-1692;614;614;1471
473941;1;6;0;801;-1015;3493;-1726;665;726;1451
473951;1;6;0;801;-1072;3480;-1752;697;771;1417
473961;1;6;0;801;-1115;3463;-1739;670;759;1392
473971;1;6;0;801;-1124;3462;-1699;630;712;1370
473981;1;6;0;801;-1118;3470;-1683;599;665;1349
473991;1;6;0;801;-1121;3511;-1676;556;657;1331
474001;1;6;0;801;-1088;3559;-1640;493;633;1344
474011;1;6;0;801;-1085;3572;-1639;429;574;1370
474021;1;6;0;801;-1018;3584;-1639;365;457;1407
474031;1;6;0;801;-928;3594;-1666;312;346;1445
474041;1;6;0;801;-883;3604;-1629;414;54;1519
474051;1;6;0;801;-779;3537;-1627;380;174;1502
474061;1;6;0;801;-749;3506;-1615;446;103;1449
474071;1;6;0;801;-800;3501;-1751;466;87;1310
474081;1;6;0;801;-810;3577;-1771;537;3;1077
474091;1;6;0;802;-839;3671;-1755;606;66;1122
474101;1;6;0;802;-838;3732;-1689;680;141;1219
474111;1;6;0;802;-771;3748;-1695;720;319;1441
474121;1;6;0;802;-825;3707;-1665;762;391;1534
474131;1;6;0;802;-807;3680;-1725;773;328;1514
474141;1;6;0;802;-730;3693;-1787;681;297;1506
474151;1;6;0;802;-773;3627;-1836;566;273;1476
474161;1;6;0;802;-760;3605;-1892;504;251;1403
474171;1;6;0;802;-765;3642;-1898;454;261;1323
474181;1;6;0;802;-776;3682;-1850;440;317;1305
474191;1;6;0;802;-833;3700;-1799;427;381;1336
474201;1;6;0;802;-811;3757;-1802;442;409;1441
474211;1;6;0;802;-770;3734;-1794;430;462;1588
474221;1;6;0;802;-696;3714;-1834;395;531;1711
474231;1;6;0;802;-605;3607;-1884;388;656;1798
474241;1;6;0;802;-510;3506;-1901;401;735;1816
474251;1;6;0;802;-430;3432;-1939;367;873;1760
474261;1;6;0;802;-441;3377;-1925;338;938;1644
474271;1;6;0;802;-371;3379;-1873;291;972;1423
474281;1;6;0;802;-391;3376;-1830;245;986;1136
474291;1;6;0;802;-478;3424;-1762;227;917;859
474301;1;6;0;802;-544;3506;-1758;210;826;653
474311;1;6;0;802;-622;3567;-1787;167;743;563
474321;1;6;0;802;-639;3649;-1861;104;727;565
474331;1;6;0;802;-569;3673;-1904;78;812;663
474341;1;6;0;802;-472;3636;-1943;117;908;767
474351;1;6;0;802;-396;3601;-1955;201;1032;815
474361;1;6;0;802;-365;3579;-1932;248;1119;780
474371;1;6;0;802;-391;3528;-1894;276;1120;642
474381;1;6;0;802;-359;3533;-1924;274;1064;501
474391;1;6;0;802;-367;3537;-1935;242;1013;333
474401;1;6;0;802;-373;3539;-1976;233;980;166
474411;1;6;0;802;-441;3520;-1984;234;1064;21
474421;1;6;0;802;-429;3541;-2033;261;1136;-18
474431;1;6;0;802;-435;3539;-2011;288;1189;37
474441;1;6;0;802;-418;3532;-2021;317;1289;68
474451;1;6;0;802;-470;3515;-2043;374;1331;136
474461;1;6;0;802;-426;3454;-2092;406;1415;216
474471;1;6;0;802;-357;3388;-2119;451;1480;313
474481;1;6;0;802;-344;3371;-2116;473;1525;365
474491;1;6;0;802;-261;3354;-2079;419;1585;298
474501;1;6;0;802;-220;3332;-2072;350;1657;171
474511;1;6;0;802;-218;3304;-2042;270;1694;-39
474521;1;6;0;802;-180;3262;-2031;230;1759;-316
474531;1;6;0;802;-228;3253;-2029;205;1798;-609
474541;1;6;0;802;-288;3312;-2057;194;1756;-839
474551;1;6;0;802;-339;3402;-2023;198;1674;-969
474561;1;6;0;802;-382;3467;-2012;261;1658;-948
474571;1;6;0;802;-374;3463;-1891;483;1409;-856
474581;1;6;0;802;-255;3384;-1951;436;1709;-787
474591;1;6;0;803;-237;3323;-1906;532;1731;-749
474601;1;6;0;803;-248;3328;-1954;600;1710;-818
474611;1;6;0;803;-299;3389;-1961;573;1612;-961
474621;1;6;0;803;-347;3447;-1987;506;1512;-1145
474631;1;6;0;803;-359;3556;-2039;455;1421;-1210
474641;1;6;0;803;-385;3596;-2055;433;1462;-1205
474651;1;6;0;803;-377;3614;-2020;461;1575;-1128
474661;1;6;0;803;-360;3574;-2006;496;1698;-1042
474671;1;6;0;803;-360;3513;-2015;535;1765;-974
474681;1;6;0;803;-322;3445;-2004;562;1749;-953
474691;1;6;0;803;-339;3405;-1993;596;1650;-974
474701;1;6;0;803;-357;3407;-2027;617;1546;-1006
474711;1;6;0;803;-410;3452;-2066;636;1414;-1034
474721;1;6;0;803;-421;3519;-2135;643;1348;-1041
474731;1;6;0;803;-456;3527;-2182;607;1368;-969
474741;1;6;0;803;-366;3504;-2210;613;1450;-830
474751;1;6;0;803;-336;3407;-2178;632;1588;-767
474761;1;6;0;803;-265;3363;-2186;682;1607;-772
474771;1;6;0;803;-246;3323;-2137;737;1611;-834
474781;1;6;0;803;-276;3299;-2118;762;1566;-1045
474791;1;6;0;803;-327;3311;-2149;779;1490;-1174
474801;1;6;0;803;-394;3333;-2167;785;1418;-1237
474811;1;6;0;803;-358;3323;-2231;810;1428;-1253
474821;1;6;0;803;-323;3293;-2235;873;1526;-1232
474831;1;6;0;803;-348;3275;-2183;935;1583;-1259
474841;1;6;0;803;-399;3275;-2109;943;1583;-1381
474851;1;6;0;803;-543;3355;-2092;860;1443;-1649
474861;1;6;0;803;-727;3594;-2190;607;1147;-2053
474871;1;6;0;803;-903;3930;-2355;202;757;-2468
474881;1;6;0;803;-923;4105;-2456;-188;482;-2689
474891;1;6;0;803;-896;4119;-2433;-435;507;-2602
474901;1;6;0;803;-835;3958;-2374;-450;816;-2298
474911;1;6;0;803;-644;3625;-2345;-137;1306;-1808
474921;1;6;0;803;-441;3256;-2248;286;1824;-1550
474931;1;6;0;803;-243;3044;-2324;643;2163;-1647
474941;1;6;0;803;-301;2982;-2475;775;2251;-2052
474951;1;6;0;803;-396;2994;-2550;651;2163;-2611
474961;1;6;0;803;-629;3055;-2566;386;1928;-3076
474971;1;6;0;803;-880;2988;-2671;-12;1822;-3142
474981;1;6;0;803;-811;3024;-2534;-387;1579;-3019
474991;1;6;0;803;-786;2822;-2630;-545;1457;-2786
475001;1;6;0;803;-581;2926;-2663;-573;1341;-2492
475011;1;6;0;803;-539;3048;-2636;-632;1286;-2231
475021;1;6;0;803;-568;2948;-2592;-640;1083;-2064
475031;1;6;0;803;-424;3053;-2591;-571;860;-1924
475041;1;6;0;803;-329;3230;-2601;-499;692;-1839
475051;1;6;0;803;-234;3390;-2640;-459;620;-1762
475061;1;6;0;803;-197;3416;-2638;-405;690;-1680
475071;1;6;0;803;-153;3377;-2609;-270;882;-1530
475081;1;6;0;803;-169;3261;-2577;-119;1120;-1335
475091;1;6;0;804;-212;3219;-2552;31;1270;-1189
475101;1;6;0;804;-256;3211;-2536;94;1286;-1113
475111;1;6;0;804;-277;3190;-2558;99;1179;-1094
475121;1;6;0;804;-329;3198;-2593;49;1066;-1067
475131;1;6;0;804;-357;3197;-2605;-52;892;-1058
475141;1;6;0;804;-375;3186;-2604;-124;752;-991
475151;1;6;0;804;-363;3175;-2632;-178;654;-881
475161;1;6;0;804;-371;3156;-2618;-163;572;-740
475171;1;6;0;804;-396;3174;-2583;-152;466;-609
475181;1;6;0;804;-438;3190;-2555;-161;355;-489
475191;1;6;0;804;-469;3241;-2528;-203;228;-346
475201;1;6;0;804;-486;3289;-2481;-279;100;-164
475211;1;6;0;804;-510;3307;-2487;-352;-13;63
475221;1;6;0;804;-515;3324;-2423;-449;-140;269
475231;1;6;0;804;-514;3317;-2406;-504;-237;477
475241;1;6;0;804;-466;3254;-2358;-532;-288;666
475251;1;6;0;804;-464;3185;-2309;-517;-299;796
475261;1;6;0;804;-492;3144;-2339;-487;-363;823
475271;1;6;0;804;-473;3156;-2331;-488;-468;749
475281;1;6;0;804;-526;3256;-2339;-477;-638;621
475291;1;6;0;804;-592;3391;-2340;-501;-800;554
475301;1;6;0;804;-667;3464;-2325;-581;-932;650
475311;1;6;0;804;-689;3527;-2293;-653;-1040;905
475321;1;6;0;804;-691;3501;-2256;-723;-1099;1270
475331;1;6;0;804;-654;3444;-2229;-731;-1180;1614
475341;1;6;0;804;-526;3416;-2242;-737;-1195;1910
475351;1;6;0;804;-421;3304;-2291;-711;-1151;2110
475361;1;6;0;804;-312;3229;-2315;-666;-1097;2210
475371;1;6;0;804;-345;3174;-2348;-657;-1125;2235
475381;1;6;0;804;-457;3211;-2357;-721;-1275;2206
475391;1;6;0;804;-521;3296;-2358;-828;-1487;2210
475401;1;6;0;804;-631;3379;-2305;-898;-1693;2300
475411;1;6;0;804;-737;3489;-2288;-966;-1809;2486
475421;1;6;0;804;-748;3579;-2325;-1015;-1861;2756
475431;1;6;0;804;-599;3616;-2426;-1014;-1723;3056
475441;1;6;0;804;-448;3526;-2484;-961;-1395;3286
475451;1;6;0;804;-344;3399;-2444;-958;-1053;3331
475461;1;6;0;804;-377;3332;-2329;-993;-898;3170
475471;1;6;0;804;-557;3274;-2224;-1024;-963;2766
475481;1;6;0;804;-730;3398;-2182;-1026;-1234;2274
475491;1;6;0;804;-714;3533;-2241;-1022;-1447;1827
475501;1;6;0;804;-530;3556;-2355;-986;-1376;1536
475511;1;6;0;804;-461;3563;-2448;-885;-1234;1391
475521;1;6;0;804;-562;3510;-2366;-864;-1169;1307
475531;1;6;0;804;-764;3530;-2186;-874;-1394;1256
475541;1;6;0;804;-895;3562;-2073;-916;-1812;1205
475551;1;6;0;804;-852;3626;-2016;-939;-2245;1370
475561;1;6;0;804;-726;3603;-2078;-950;-2489;1694
475571;1;6;0;804;-504;3487;-2213;-904;-2562;2038
475581;1;6;0;804;-355;3383;-2228;-777;-2558;2270
475591;1;6;0;805;-161;3351;-2168;-748;-2535;2090
475601;1;6;0;805;-60;3193;-2172;-741;-2504;1868
475611;1;6;0;805;72;3295;-2188;-700;-2489;1649
475621;1;6;0;805;187;3409;-2207;-700;-2288;1469
475631;1;6;0;805;329;3401;-2210;-670;-2028;1347
475641;1;6;0;805;391;3333;-2235;-609;-1722;1290
475651;1;6;0;805;376;3324;-2215;-576;-1445;1153
475661;1;6;0;805;286;3360;-2205;-571;-1209;997
475671;1;6;0;805;167;3404;-2212;-568;-1068;861
475681;1;6;0;805;71;3398;-2227;-561;-978;773
475691;1;6;0;805;26;3345;-2280;-525;-918;737
475701;1;6;0;805;77;3279;-2300;-467;-808;731
475711;1;6;0;805;160;3231;-2355;-410;-678;632
475721;1;6;0;805;205;3196;-2343;-343;-548;476
475731;1;6;0;805;191;3184;-2299;-245;-422;279
475741;1;6;0;805;192;3187;-2282;-152;-262;123
475751;1;6;0;805;230;3231;-2270;-52;-90;-20
475761;1;6;0;805;205;3247;-2310;22;91;-147
475771;1;6;0;805;166;3257;-2318;87;265;-250
475781;1;6;0;805;171;3262;-2293;161;440;-310
475791;1;6;0;805;171;3212;-2243;238;622;-408
475801;1;6;0;805;143;3149;-2174;280;782;-548
475811;1;6;0;805;83;3140;-2134;302;881;-778
475821;1;6;0;805;60;3146;-2106;326;902;-964
475831;1;6;0;805;91;3173;-2147;406;915;-1131
475841;1;6;0;805;148;3178;-2102;568;846;-1335
475851;1;6;0;805;100;3254;-2136;626;933;-1310
475861;1;6;0;805;0;3394;-2140;658;944;-1411
475871;1;6;0;805;-35;3439;-2180;640;941;-1525
475881;1;6;0;805;-19;3430;-2249;672;949;-1599
475891;1;6;0;805;-15;3426;-2290;784;1019;-1600
475901;1;6;0;805;-25;3441;-2287;912;1075;-1586
475911;1;6;0;805;-112;3462;-2229;1025;1126;-1542
475921;1;6;0;805;-189;3483;-2157;1098;1088;-1468
475931;1;6;0;805;-232;3487;-2148;1114;947;-1374
475941;1;6;0;805;-238;3499;-2106;1094;793;-1268
475951;1;6;0;805;-206;3483;-2139;1076;734;-1200
475961;1;6;0;805;-152;3457;-2229;1066;762;-1167
475971;1;6;0;805;-53;3489;-2318;1073;911;-1213
475981;1;6;0;805;43;3498;-2398;1096;1118;-1283
475991;1;6;0;805;124;3478;-2473;1152;1370;-1311
476001;1;6;0;805;165;3448;-2534;1229;1568;-1384
476011;1;6;0;805;26;3459;-2527;1249;1820;-1612
476021;1;6;0;805;-223;3463;-2450;1166;1919;-2014
476031;1;6;0;805;-556;3613;-2374;986;1774;-2487
476041;1;6;0;805;-826;3800;-2356;617;1438;-2991
476051;1;6;0;805;-1029;3831;-2329;236;1040;-3331
476061;1;6;0;805;-1170;3830;-2249;-37;724;-3296
476071;1;6;0;805;-1173;3871;-2210;-124;676;-2914
476081;1;6;0;805;-880;3794;-2260;35;1077;-2316
476091;1;6;0;806;-588;3609;-2274;374;1726;-1748
476101;1;6;0;806;-411;3411;-2291;699;2363;-1380
476111;1;6;0;806;-250;3212;-2305;828;2788;-1378
476121;1;6;0;806;-150;2991;-2290;726;2949;-1749
476131;1;6;0;806;-176;2846;-2298;452;2834;-2403
476141;1;6;0;806;-251;2783;-2296;107;2591;-3048
476151;1;6;0;806;-458;2766;-2249;-175;2287;-3529
476161;1;6;0;806;-649;2819;-2239;-425;2103;-3746
476171;1;6;0;806;-760;2985;-2294;-527;1949;-3649
476181;1;6;0;806;-815;3211;-2364;-598;1819;-3382
476191;1;6;0;806;-816;3363;-2462;-600;1677;-3012
476201;1;6;0;806;-761;3530;-2552;-526;1494;-2500
476211;1;6;0;806;-702;3652;-2685;-436;1341;-1927
476221;1;6;0;806;-583;3700;-2734;-366;1254;-1444
476231;1;6;0;806;-425;3614;-2776;-265;1245;-1066
476241;1;6;0;806;-331;3551;-2739;-51;1117;-842
476251;1;6;0;806;-178;3339;-2649;-56;1362;-710
476261;1;6;0;806;-139;3187;-2574;102;1408;-772
476271;1;6;0;806;-157;3074;-2520;187;1529;-779
476281;1;6;0;806;-208;3013;-2561;275;1585;-892
476291;1;6;0;806;-270;3031;-2655;320;1590;-1001
476301;1;6;0;806;-340;3048;-2729;305;1547;-1029
476311;1;6;0;806;-430;3068;-2755;220;1523;-955
476321;1;6;0;806;-492;3089;-2761;51;1424;-839
476331;1;6;0;806;-605;3048;-2723;-140;1287;-757
476341;1;6;0;806;-659;3051;-2646;-267;1081;-627
476351;1;6;0;806;-697;3085;-2621;-385;895;-426
476361;1;6;0;806;-698;3136;-2586;-416;671;-188
476371;1;6;0;806;-625;3186;-2531;-414;457;24
476381;1;6;0;806;-588;3253;-2499;-345;279;252
476391;1;6;0;806;-504;3319;-2462;-280;169;414
476401;1;6;0;806;-446;3334;-2420;-218;96;606
476411;1;6;0;806;-395;3307;-2351;-181;53;770
476421;1;6;0;806;-328;3295;-2283;-141;37;897
476431;1;6;0;806;-228;3265;-2303;-145;9;1005
476441;1;6;0;806;-196;3153;-2405;-145;-45;1045
476451;1;6;0;806;-224;3119;-2470;-136;-109;995
476461;1;6;0;806;-266;3111;-2539;-161;-175;981
476471;1;6;0;806;-359;3072;-2590;-154;-243;1012
476481;1;6;0;806;-428;3065;-2589;-156;-339;1070
476491;1;6;0;806;-487;3055;-2587;-224;-476;1109
476501;1;6;0;806;-485;3084;-2571;-353;-651;1125
476511;1;6;0;806;-446;3139;-2565;-531;-804;1126
476521;1;6;0;806;-473;3170;-2572;-659;-908;1130
476531;1;6;0;806;-489;3221;-2556;-724;-968;1186
476541;1;6;0;806;-511;3308;-2590;-733;-978;1306
476551;1;6;0;806;-602;3372;-2583;-711;-982;1541
476561;1;6;0;806;-675;3431;-2518;-733;-1063;1803
476571;1;6;0;806;-736;3475;-2434;-815;-1168;2039
476581;1;6;0;806;-789;3470;-2379;-938;-1305;2318
476591;1;6;0;807;-809;3476;-2333;-1008;-1495;2557
476601;1;6;0;807;-737;3500;-2320;-1037;-1603;2644
476611;1;6;0;807;-617;3503;-2347;-1057;-1590;2663
476621;1;6;0;807;-510;3426;-2250;-1056;-1492;2586
476631;1;6;0;807;-473;3233;-2096;-967;-1381;2435
476641;1;6;0;807;-539;3182;-1910;-834;-1380;2136
476651;1;6;0;807;-550;3194;-1850;-802;-1428;1759
476661;1;6;0;807;-648;3223;-1895;-850;-1470;1332
476671;1;6;0;807;-766;3329;-1976;-961;-1655;912
476681;1;6;0;807;-715;3481;-2135;-1125;-1897;578
476691;1;6;0;807;-658;3584;-2248;-1297;-2146;423
476701;1;6;0;807;-541;3679;-2281;-1394;-2368;383
476711;1;6;0;807;-470;3802;-2213;-1443;-2469;475
476721;1;6;0;807;-498;3882;-2101;-1470;-2564;680
476731;1;6;0;807;-498;3861;-2022;-1429;-2648;996
476741;1;6;0;807;-338;3794;-2059;-1278;-2762;1416
476751;1;6;0;807;-142;3690;-2190;-1080;-2756;1883
476761;1;6;0;807;65;3570;-2242;-775;-2784;2164
476771;1;6;0;807;211;3498;-2301;-730;-2345;2554
476781;1;6;0;807;322;3367;-2369;-693;-2299;2581
476791;1;6;0;807;373;3282;-2366;-664;-2166;2375
476801;1;6;0;807;442;3289;-2345;-647;-2043;2066
476811;1;6;0;807;488;3296;-2430;-511;-1565;1636
476821;1;6;0;807;76;3250;-3051;2118;2178;-198
476831;1;6;0;807;362;3438;-2337;-56;-545;716
476841;1;6;0;807;153;3466;-2209;-486;-1010;880
476851;1;6;0;807;151;3457;-2315;-647;-1043;911
476861;1;6;0;807;150;3440;-2292;-681;-876;950
476871;1;6;0;807;194;3391;-2223;-674;-805;1056
476881;1;6;0;807;231;3319;-2175;-677;-712;1028
476891;1;6;0;807;217;3299;-2141;-624;-670;875
476901;1;6;0;807;170;3281;-2119;-551;-652;710
476911;1;6;0;807;118;3303;-2106;-452;-649;617
476921;1;6;0;807;136;3356;-2153;-364;-608;594
476931;1;6;0;807;184;3369;-2170;-307;-551;557
476941;1;6;0;807;199;3361;-2164;-262;-478;493
476951;1;6;0;807;222;3376;-2126;-219;-407;446
476961;1;6;0;807;278;3358;-2109;-133;-316;370
476971;1;6;0;807;330;3343;-2166;1;-154;301
476981;1;6;0;807;360;3392;-2222;142;-6;233
476991;1;6;0;807;327;3368;-2228;274;113;188
477001;1;6;0;807;312;3317;-2206;403;210;147
477011;1;6;0;807;293;3285;-2193;535;349;65
477021;1;6;0;807;273;3242;-2125;617;465;-67
477031;1;6;0;807;183;3213;-2094;692;398;-209
477041;1;6;0;807;169;3221;-2111;720;315;-280
477051;1;6;0;807;102;3260;-2135;750;206;-362
477061;1;6;0;807;143;3351;-2191;785;150;-428
477071;1;6;0;807;115;3432;-2189;821;191;-478
477081;1;6;0;807;40;3503;-2200;838;214;-482
477091;1;6;0;808;-25;3543;-2134;870;214;-434
477101;1;6;0;808;-49;3590;-2089;929;136;-386
477111;1;6;0;808;-99;3610;-2097;978;44;-348
477121;1;6;0;808;-117;3669;-2123;998;-51;-330
477131;1;6;0;808;-28;3693;-2189;1015;-94;-313
477141;1;6;0;808;141;3631;-2271;1064;83;-262
477151;1;6;0;808;299;3492;-2277;1136;416;-200
477161;1;6;0;808;375;3360;-2209;1234;742;-252
477171;1;6;0;808;333;3223;-2145;1321;1016;-468
477181;1;6;0;808;237;3076;-2174;1436;1091;-781
477191;1;6;0;808;109;3004;-2199;1548;1165;-1117
477201;1;6;0;808;-87;2998;-2155;1606;1267;-1352
477211;1;6;0;808;-227;3060;-2182;1526;1101;-1483
477221;1;6;0;808;-444;3188;-2184;1384;989;-1702
477231;1;6;0;808;-677;3363;-2166;1199;742;-1885
477241;1;6;0;808;-928;3621;-2213;969;397;-2070
477251;1;6;0;808;-1164;3978;-2311;666;-65;-2190
477261;1;6;0;808;-1262;4378;-2366;291;-551;-2303
477271;1;6;0;808;-1124;4473;-2414;-170;-650;-2165
477281;1;6;0;808;-836;4048;-2348;-214;-218;-1588
477291;1;6;0;808;-430;3719;-2405;117;397;-1031
477301;1;6;0;808;57;3407;-2596;561;1097;-794
477311;1;6;0;808;275;3134;-2728;900;1619;-966
477321;1;6;0;808;236;2975;-2822;1050;1819;-1517
477331;1;6;0;808;-26;2828;-2890;1108;1968;-2059
477341;1;6;0;808;-296;2755;-2791;924;1736;-2055
477351;1;6;0;808;-523;2737;-2674;629;1444;-1900
477361;1;6;0;808;-567;2828;-2676;236;813;-1567
477371;1;6;0;808;-531;2953;-2680;31;282;-1194
477381;1;6;0;808;-440;3120;-2709;-58;-40;-905
477391;1;6;0;808;-315;3277;-2732;-112;-229;-608
477401;1;6;0;808;-241;3350;-2755;-54;-321;-351
477411;1;6;0;808;-162;3370;-2738;73;-363;-202
477421;1;6;0;808;-136;3342;-2729;230;-326;-127
477431;1;6;0;808;-117;3286;-2693;359;-228;-38
477441;1;6;0;808;-107;3135;-2670;483;-141;67
477451;1;6;0;808;-121;3003;-2628;597;-101;124
477461;1;6;0;808;-133;2915;-2637;712;-68;92
477471;1;6;0;808;-161;2904;-2676;810;-45;-7
477481;1;6;0;808;-169;2924;-2704;835;38;-105
477491;1;6;0;808;-231;2899;-2741;797;184;-178
477501;1;6;0;808;-369;2855;-2789;708;292;-293
477511;1;6;0;808;-440;2833;-2786;583;323;-435
477521;1;6;0;808;-493;2817;-2779;429;220;-559
477531;1;6;0;808;-560;2830;-2807;289;16;-594
477541;1;6;0;808;-572;2925;-2795;170;-174;-546
477551;1;6;0;808;-527;3008;-2800;108;-292;-377
477561;1;6;0;808;-437;3049;-2790;105;-357;-175
477571;1;6;0;808;-352;3106;-2802;138;-385;8
477581;1;6;0;808;-307;3102;-2796;109;-384;89
477591;1;6;0;809;-310;3096;-2759;103;-426;103
477601;1;6;0;809;-302;3099;-2788;89;-440;135
477611;1;6;0;809;-296;3083;-2766;79;-436;209
477621;1;6;0;809;-292;3075;-2762;92;-459;325
477631;1;6;0;809;-273;3070;-2755;115;-479;436
477641;1;6;0;809;-180;3033;-2810;117;-451;524
477651;1;6;0;809;-156;2980;-2817;172;-335;606
477661;1;6;0;809;-116;2929;-2798;179;-184;601
477671;1;6;0;809;-156;2875;-2759;166;-89;538
477681;1;6;0;809;-190;2849;-2748;124;-46;412
477691;1;6;0;809;-269;2844;-2813;79;-117;280
477701;1;6;0;809;-295;2921;-2838;35;-240;134
477711;1;6;0;809;-325;3039;-2877;-54;-354;107
477721;1;6;0;809;-384;3034;-2862;-128;-423;178
477731;1;6;0;809;-471;3090;-2831;-121;-461;360
477741;1;6;0;809;-435;3136;-2818;-128;-474;569
477751;1;6;0;809;-496;3107;-2777;-85;-544;752
477761;1;6;0;809;-517;3124;-2712;1;-639;902
477771;1;6;0;809;-491;3173;-2716;26;-662;1031
477781;1;6;0;809;-514;3189;-2630;65;-650;1246
477791;1;6;0;809;-457;3201;-2591;-9;-555;1442
477801;1;6;0;809;-463;3171;-2527;-109;-519;1676
477811;1;6;0;809;-407;3132;-2501;-231;-520;1874
477821;1;6;0;809;-300;3079;-2550;-338;-482;1935
477831;1;6;0;809;-243;3019;-2539;-443;-355;1897
477841;1;6;0;809;-266;2915;-2462;-537;-198;1748
477851;1;6;0;809;-293;2873;-2408;-620;-77;1474
477861;1;6;0;809;-359;2940;-2366;-742;-23;1159
477871;1;6;0;809;-513;2994;-2282;-849;-125;894
477881;1;6;0;809;-720;3058;-2225;-916;-394;651
477891;1;6;0;809;-788;3228;-2308;-935;-725;470
477901;1;6;0;809;-674;3435;-2448;-916;-1001;385
477911;1;6;0;809;-560;3633;-2585;-866;-1078;463
477921;1;6;0;809;-436;3704;-2670;-833;-947;606
477931;1;6;0;809;-307;3720;-2724;-747;-734;734
477941;1;6;0;809;-164;3819;-2740;-686;-649;844
477951;1;6;0;809;-65;3792;-2587;-679;-708;872
477961;1;6;0;809;-58;3649;-2532;-688;-846;993
477971;1;6;0;809;-39;3543;-2490;-607;-1091;1130
477981;1;6;0;809;-66;3412;-2476;-452;-1447;1365
477991;1;6;0;809;72;3225;-2455;-283;-1457;1614
478001;1;6;0;809;182;3065;-2375;-94;-1222;1909
478011;1;6;0;809;333;2928;-2306;-111;-1342;2141
478021;1;6;0;809;664;2807;-2397;-74;-1091;2112
478031;1;6;0;809;888;2793;-2533;-51;-780;1894
478041;1;6;0;809;890;2850;-2667;-106;-563;1432
478051;1;6;0;809;769;2959;-2742;-228;-446;918
478061;1;6;0;809;591;3052;-2756;-337;-349;461
478071;1;6;0;809;463;3136;-2737;-443;-187;155
478081;1;6;0;809;338;3169;-2702;-500;-36;23
478091;1;6;0;810;278;3167;-2694;-505;80;-48
478101;1;6;0;810;224;3189;-2652;-436;197;-96
478111;1;6;0;810;249;3223;-2711;-332;307;-163
478121;1;6;0;810;268;3274;-2742;-195;458;-183
478131;1;6;0;810;300;3267;-2774;-75;654;-195
478141;1;6;0;810;314;3235;-2753;-2;803;-208
478151;1;6;0;810;332;3209;-2745;5;930;-243
478161;1;6;0;810;324;3141;-2691;-1;1006;-328
478171;1;6;0;810;328;3135;-2652;-10;1067;-423
478181;1;6;0;810;332;3101;-2605;-35;1139;-501
478191;1;6;0;810;413;3075;-2595;-35;1191;-617
478201;1;6;0;810;393;3081;-2581;-27;1221;-738
478211;1;6;0;810;389;3128;-2551;-42;1219;-860
478221;1;6;0;810;369;3145;-2501;-20;1216;-944
478231;1;6;0;810;336;3183;-2451;-4;1235;-966
478241;1;6;0;810;320;3200;-2438;4;1271;-963
478251;1;6;0;810;310;3186;-2408;5;1276;-957
478261;1;6;0;810;332;3165;-2396;-5;1176;-1007
478271;1;6;0;810;322;3204;-2406;-26;1079;-1062
478281;1;6;0;810;336;3291;-2409;-37;943;-1136
478291;1;6;0;810;290;3361;-2389;-47;861;-1150
478301;1;6;0;810;276;3415;-2367;-39;806;-1127
478311;1;6;0;810;242;3421;-2407;-7;841;-1069
478321;1;6;0;810;197;3368;-2462;78;884;-994
478331;1;6;0;810;190;3298;-2490;148;981;-880
478341;1;6;0;810;208;3161;-2538;224;1106;-736
478351;1;6;0;810;235;3080;-2535;311;1174;-659
478361;1;6;0;810;219;3015;-2529;397;1208;-660
478371;1;6;0;810;193;2979;-2506;470;1220;-762
478381;1;6;0;810;159;3033;-2503;502;1236;-999
478391;1;6;0;810;139;3094;-2549;468;1214;-1145
478401;1;6;0;810;97;3176;-2626;410;1148;-1293
478411;1;6;0;810;136;3312;-2723;339;1118;-1364
478421;1;6;0;810;144;3349;-2807;330;1170;-1388
478431;1;6;0;810;68;3393;-2787;365;1264;-1389
478441;1;6;0;810;-83;3421;-2733;356;1376;-1369
478451;1;6;0;810;-254;3474;-2648;298;1373;-1414
478461;1;6;0;810;-402;3578;-2620;161;1168;-1610
478471;1;6;0;810;-495;3668;-2604;-74;804;-1902
478481;1;6;0;810;-623;3647;-2497;-309;463;-2170
478491;1;6;0;810;-707;3547;-2421;-364;341;-2211
478501;1;6;0;810;-783;3432;-2317;-265;460;-1845
478511;1;6;0;810;-598;3149;-2323;-13;770;-1329
478521;1;6;0;810;-190;2943;-2434;301;1238;-838
478531;1;6;0;810;155;2685;-2611;575;1624;-632
478541;1;6;0;810;404;2494;-2621;741;1861;-816
478551;1;6;0;810;459;2442;-2649;688;1964;-1476
478561;1;6;0;810;280;2528;-2679;372;1804;-2354
478571;1;6;0;810;-15;2640;-2662;-83;1472;-3184
478581;1;6;0;810;-281;2736;-2617;-532;1155;-3739
478591;1;6;0;811;-577;2862;-2634;-837;920;-3805
478601;1;6;0;811;-772;3058;-2712;-929;628;-3496
478611;1;6;0;811;-782;3256;-2852;-877;248;-2819
478621;1;6;0;811;-717;3396;-2962;-746;-80;-2000
478631;1;6;0;811;-511;3396;-2994;-538;-289;-1160
478641;1;6;0;811;-315;3382;-3035;-337;-301;-533
478651;1;6;0;811;-88;3316;-3044;-61;-173;-42
478661;1;6;0;811;130;3226;-3060;211;70;173
478671;1;6;0;811;251;3127;-3060;423;253;133
478681;1;6;0;811;341;3047;-3074;593;476;-6
478691;1;6;0;811;330;2955;-3001;715;882;-194
478701;1;6;0;811;226;2837;-2932;775;1393;-425
478711;1;6;0;811;56;2773;-2848;555;1174;-590
478721;1;6;0;811;-62;2720;-2828;400;1150;-835
478731;1;6;0;811;-214;2777;-2825;255;987;-1081
478741;1;6;0;811;-351;2900;-2901;106;605;-1116
478751;1;6;0;811;-441;2968;-2931;-52;226;-932
478761;1;6;0;811;-448;3054;-2891;-126;-90;-467
478771;1;6;0;811;-416;3107;-2808;-153;-239;-135
478781;1;6;0;811;-366;3103;-2720;-145;-404;235
478791;1;6;0;811;-344;3126;-2631;-118;-602;480
478801;1;6;0;811;-288;3161;-2604;-108;-838;603
478811;1;6;0;811;-209;3199;-2581;-89;-1060;695
478821;1;6;0;811;-174;3207;-2589;-108;-1147;774
478831;1;6;0;811;-162;3174;-2597;-177;-1201;862
478841;1;6;0;811;-148;3164;-2629;-230;-1261;932
478851;1;6;0;811;-149;3094;-2687;-235;-1337;995
478861;1;6;0;811;-178;3121;-2741;-206;-1476;1088
478871;1;6;0;811;-236;3115;-2771;-170;-1580;1254
478881;1;6;0;811;-217;3093;-2805;-140;-1613;1449
478891;1;6;0;811;-212;3072;-2780;-75;-1444;1625
478901;1;6;0;811;-268;3047;-2769;-148;-1508;1811
478911;1;6;0;811;-339;3009;-2729;-236;-1683;1933
478921;1;6;0;811;-346;3007;-2734;-316;-1870;2062
478931;1;6;0;811;-372;3002;-2743;-391;-1968;2221
478941;1;6;0;811;-391;2967;-2696;-473;-2063;2443
478951;1;6;0;811;-446;2923;-2612;-552;-2155;2719
478961;1;6;0;811;-546;2868;-2540;-673;-2248;3001
478971;1;6;0;811;-589;2793;-2492;-771;-2416;3212
478981;1;6;0;811;-659;2819;-2437;-856;-2646;3369
478991;1;6;0;811;-733;2933;-2412;-967;-2910;3443
479001;1;6;0;811;-727;3135;-2422;-1064;-3118;3302
479011;1;6;0;811;-646;3279;-2481;-1144;-3245;3143
479021;1;6;0;811;-595;3359;-2447;-1173;-3219;3007
479031;1;6;0;811;-534;3400;-2367;-1224;-3008;2873
479041;1;6;0;811;-531;3335;-2273;-1269;-2790;2684
479051;1;6;0;811;-434;3284;-2269;-1280;-2680;2275
479061;1;6;0;811;-351;3404;-2356;-1317;-2639;1685
479071;1;6;0;811;-410;3528;-2503;-1387;-2671;1067
479081;1;6;0;811;-604;3680;-2597;-1551;-2875;665
479091;1;6;0;812;-819;3790;-2576;-1679;-3159;620
479101;1;6;0;812;-907;3865;-2505;-1717;-3415;891
479111;1;6;0;812;-800;3871;-2420;-1646;-3637;1366
479121;1;6;0;812;-573;3810;-2354;-1601;-3785;1863
479131;1;6;0;812;-157;3719;-2338;-1565;-3940;2291
479141;1;6;0;812;291;3587;-2217;-1604;-3875;2460
479151;1;6;0;812;676;3465;-2318;-1571;-3718;2342
479161;1;6;0;812;870;3231;-2361;-1551;-3475;2337
479171;1;6;0;812;885;3067;-2363;-1410;-3163;2237
479181;1;6;0;812;887;3056;-2355;-1310;-2907;2140
479191;1;6;0;812;792;3027;-2397;-1182;-2568;1947
479201;1;6;0;812;664;3064;-2461;-1011;-2313;1709
479211;1;6;0;812;489;3126;-2557;-856;-2118;1498
479221;1;6;0;812;390;3196;-2557;-766;-1881;1312
479231;1;6;0;812;297;3282;-2523;-720;-1640;1162
479241;1;6;0;812;227;3352;-2429;-706;-1459;1079
479251;1;6;0;812;165;3351;-2373;-661;-1363;1049
479261;1;6;0;812;165;3347;-2338;-574;-1332;1014
479271;1;6;0;812;203;3346;-2352;-431;-1254;982
479281;1;6;0;812;213;3318;-2432;-261;-1143;964
479291;1;6;0;812;248;3236;-2502;-40;-998;942
479301;1;6;0;812;356;3192;-2510;168;-930;911
479311;1;6;0;812;413;3301;-2459;226;-601;826
479321;1;6;0;812;333;3133;-2425;267;-368;689
479331;1;6;0;812;326;3087;-2410;303;-240;518
479341;1;6;0;812;340;3061;-2372;312;-96;299
479351;1;6;0;812;308;3089;-2387;301;30;60
479361;1;6;0;812;325;3137;-2432;289;174;-165
479371;1;6;0;812;360;3203;-2464;326;399;-402
479381;1;6;0;812;364;3238;-2449;333;542;-505
479391;1;6;0;812;327;3284;-2416;353;658;-660
479401;1;6;0;812;284;3320;-2399;364;695;-799
479411;1;6;0;812;262;3347;-2366;407;675;-870
479421;1;6;0;812;288;3381;-2355;472;680;-872
479431;1;6;0;812;285;3418;-2324;593;724;-833
479441;1;6;0;812;304;3455;-2325;642;766;-777
479451;1;6;0;812;271;3441;-2290;673;745;-772
479461;1;6;0;812;273;3440;-2239;722;747;-802
479471;1;6;0;812;268;3435;-2254;765;864;-808
479481;1;6;0;812;213;3386;-2283;836;1005;-817
479491;1;6;0;812;175;3361;-2320;891;1136;-864
479501;1;6;0;812;207;3313;-2376;919;1284;-914
479511;1;6;0;812;252;3197;-2388;968;1485;-962
479521;1;6;0;812;243;3099;-2367;1040;1744;-1021
479531;1;6;0;812;162;3095;-2324;1104;1936;-1167
479541;1;6;0;812;67;3135;-2298;1126;2011;-1424
479551;1;6;0;812;-57;3124;-2270;1079;1995;-1754
479561;1;6;0;812;-217;3094;-2295;1016;1930;-2015
479571;1;6;0;812;-340;3038;-2300;921;1790;-2112
479581;1;6;0;812;-452;3079;-2203;909;1606;-2111
479591;1;6;0;813;-618;3290;-2220;851;1290;-2142
479601;1;6;0;813;-862;3760;-2385;579;744;-2369
479611;1;6;0;813;-1240;4455;-2580;6;-95;-2794
479621;1;6;0;813;-1464;4895;-2547;-694;-795;-3087
479631;1;6;0;813;-1258;4719;-2431;-1025;-723;-2633
479641;1;6;0;813;-768;4146;-2283;-834;62;-1652
479651;1;6;0;813;-77;3434;-2313;-116;1089;-892
479661;1;6;0;813;547;2714;-2551;713;1890;-527
479671;1;6;0;813;869;2268;-2672;1460;2274;-859
479681;1;6;0;813;924;2158;-2870;1851;2350;-1807
479691;1;6;0;813;570;2737;-2825;2011;3703;-3590
479701;1;6;0;813;-225;2896;-2771;1018;3239;-4112
479711;1;6;0;813;-899;2755;-2805;335;2806;-3801
479721;1;6;0;813;-1285;2560;-2495;129;2471;-3535
479731;1;6;0;813;-1331;2351;-2752;-549;755;-1950
479741;1;6;0;813;-838;2685;-2997;-826;-426;-1196
479751;1;6;0;813;-273;3299;-3180;-1129;-852;-1038
479761;1;6;0;813;120;3490;-3126;-1216;-694;-811
479771;1;6;0;813;413;3515;-2992;-853;-84;-622
479781;1;6;0;813;591;3541;-2835;-278;698;-671
479791;1;6;0;813;471;3249;-2741;-11;1070;-819
479801;1;6;0;813;255;3076;-2696;305;1060;-1044
479811;1;6;0;813;66;3164;-2751;520;1135;-1103
479821;1;6;0;813;-5;3131;-2803;754;1330;-1030
479831;1;6;0;813;-79;3070;-2835;828;1560;-891
479841;1;6;0;813;-152;2944;-2900;845;1770;-749
479851;1;6;0;813;-257;2801;-2881;702;1710;-692
479861;1;6;0;813;-304;2656;-2833;486;1617;-829
479871;1;6;0;813;-324;2603;-2759;229;1201;-876
479881;1;6;0;813;-390;2690;-2767;86;883;-998
479891;1;6;0;813;-421;2822;-2771;-61;593;-1045
479901;1;6;0;813;-415;2975;-2814;-176;375;-936
479911;1;6;0;813;-399;3074;-2804;-199;268;-702
479921;1;6;0;813;-347;3142;-2816;-223;255;-421
479931;1;6;0;813;-238;3191;-2838;-223;277;-181
479941;1;6;0;813;-125;3189;-2838;-255;309;14
479951;1;6;0;813;-41;3153;-2801;-253;319;98
479961;1;6;0;813;-37;3125;-2779;-260;277;95
479971;1;6;0;813;-95;3091;-2760;-263;175;55
479981;1;6;0;813;-134;3101;-2745;-247;71;61
479991;1;6;0;813;-169;3083;-2746;-195;-12;132
480001;1;6;0;813;-175;3036;-2744;-192;-89;304
480011;1;6;0;813;-159;3007;-2743;-193;-124;509
480021;1;6;0;813;-130;2984;-2810;-190;-105;677
480031;1;6;0;813;-122;2969;-2837;-215;-114;787
480041;1;6;0;813;-129;2965;-2841;-272;-186;829
480051;1;6;0;813;-165;2970;-2792;-339;-228;831
480061;1;6;0;813;-208;3005;-2761;-431;-274;837
480071;1;6;0;813;-227;3002;-2748;-532;-307;809
480081;1;6;0;813;-269;2974;-2716;-615;-360;791
480091;1;6;0;814;-287;2968;-2671;-676;-401;861
480101;1;6;0;814;-320;2926;-2648;-717;-467;947
480111;1;6;0;814;-370;2987;-2649;-705;-556;1065
480121;1;6;0;814;-427;3037;-2587;-742;-606;1218
480131;1;6;0;814;-515;3038;-2566;-801;-643;1333
480141;1;6;0;814;-621;3081;-2575;-856;-746;1411
480151;1;6;0;814;-673;3109;-2572;-912;-880;1412
480161;1;6;0;814;-655;3077;-2507;-939;-1033;1369
480171;1;6;0;814;-587;3069;-2415;-876;-1177;1313
480181;1;6;0;814;-709;3045;-2317;-812;-1332;1261
480191;1;6;0;814;-754;3130;-2196;-761;-1516;1235
480201;1;6;0;814;-762;3240;-2108;-756;-1605;1110
480211;1;6;0;814;-689;3354;-2130;-741;-1690;883
480221;1;6;0;814;-539;3512;-2294;-765;-1757;493
480231;1;6;0;814;-443;3610;-2481;-834;-1796;154
480241;1;6;0;814;-495;3657;-2525;-993;-2045;-31
480251;1;6;0;814;-606;3753;-2498;-1182;-2423;-59
480261;1;6;0;814;-599;3833;-2416;-1335;-2610;138
480271;1;6;0;814;-500;3797;-2421;-1354;-2606;659
480281;1;6;0;814;-326;3687;-2417;-1199;-2425;1265
480291;1;6;0;814;-53;3505;-2548;-1026;-2143;1843
480301;1;6;0;814;347;3255;-2650;-939;-1832;2203
480311;1;6;0;814;688;3036;-2745;-795;-1562;2312
480321;1;6;0;814;970;2971;-2838;-740;-1271;1944
480331;1;6;0;814;931;3067;-2918;-798;-1018;1384
480341;1;6;0;814;752;3114;-2851;-900;-879;812
480351;1;6;0;814;570;3205;-2787;-1068;-766;413
480361;1;6;0;814;378;3281;-2698;-1153;-625;169
480371;1;6;0;814;275;3355;-2634;-1233;-446;84
480381;1;6;0;814;214;3398;-2561;-1214;-284;137
480391;1;6;0;814;208;3385;-2506;-1151;-254;184
480401;1;6;0;814;176;3418;-2409;-1013;-215;284
480411;1;6;0;814;157;3405;-2328;-829;-215;359
480421;1;6;0;814;153;3361;-2289;-639;-246;377
480431;1;6;0;814;148;3362;-2280;-481;-275;428
480441;1;6;0;814;200;3379;-2249;-356;-272;484
480451;1;6;0;814;269;3357;-2264;-272;-144;517
480461;1;6;0;814;299;3252;-2261;-200;18;499
480471;1;6;0;814;383;3221;-2307;-134;112;385
480481;1;6;0;814;415;3174;-2292;-80;210;155
480491;1;6;0;814;383;3169;-2321;-12;297;-119
480501;1;6;0;814;278;3200;-2347;78;387;-313
480511;1;6;0;814;188;3243;-2422;193;452;-401
480521;1;6;0;814;87;3301;-2399;288;493;-403
480531;1;6;0;814;46;3373;-2367;268;491;-345
480541;1;6;0;814;75;3394;-2349;229;538;-315
480551;1;6;0;814;93;3390;-2365;221;611;-313
480561;1;6;0;814;182;3358;-2340;223;679;-386
480571;1;6;0;814;258;3309;-2313;260;782;-527
480581;1;6;0;814;255;3277;-2301;336;878;-691
480591;1;6;0;815;165;3303;-2261;414;925;-805
480601;1;6;0;815;69;3314;-2252;477;938;-852
480611;1;6;0;815;-17;3282;-2208;548;974;-852
480621;1;6;0;815;-56;3239;-2219;616;1046;-813
480631;1;6;0;815;-24;3217;-2209;670;1136;-793
480641;1;6;0;815;68;3181;-2228;719;1255;-859
480651;1;6;0;815;174;3059;-2238;795;1413;-993
480661;1;6;0;815;174;2924;-2233;907;1566;-1179
480671;1;6;0;815;77;2933;-2238;1035;1613;-1384
480681;1;6;0;815;15;3072;-2250;1050;1555;-1633
480691;1;6;0;815;-119;3185;-2311;1008;1402;-1905
480701;1;6;0;815;-254;3371;-2383;941;1241;-2168
480711;1;6;0;815;-434;3532;-2417;866;1151;-2334
480721;1;6;0;815;-557;3616;-2432;774;1173;-2414
480731;1;6;0;815;-638;3700;-2448;677;1212;-2484
480741;1;6;0;815;-773;3868;-2534;498;1066;-2701
480751;1;6;0;815;-917;4048;-2628;238;729;-3050
480761;1;6;0;815;-929;4052;-2725;34;367;-3399
480771;1;6;0;815;-735;3945;-2595;40;589;-3554
480781;1;6;0;815;-782;3562;-2481;267;1390;-3393
480791;1;6;0;815;-600;3141;-2556;580;1996;-2865
480801;1;6;0;815;-283;2690;-2706;942;2397;-2333
480811;1;6;0;815;-67;2492;-2724;1138;2565;-2224
480821;1;6;0;815;-15;2582;-2669;955;2368;-2241
480831;1;6;0;815;-229;2549;-2618;491;2287;-2566
480841;1;6;0;815;-562;2520;-2572;26;1960;-2713
480851;1;6;0;815;-853;2481;-2563;-270;1232;-2643
480861;1;6;0;815;-861;2682;-2695;-518;271;-2511
480871;1;6;0;815;-654;2969;-2826;-743;-374;-2359
480881;1;6;0;815;-306;3405;-2958;-893;-621;-2203
480891;1;6;0;815;-66;3569;-3023;-891;-443;-2030
480901;1;6;0;815;77;3556;-2993;-580;-14;-1719
480911;1;6;0;815;61;3483;-2869;-228;311;-1407
480921;1;6;0;815;65;3399;-2793;68;458;-1192
480931;1;6;0;815;0;3310;-2741;340;576;-962
480941;1;6;0;815;-102;3205;-2749;585;656;-767
480951;1;6;0;815;-174;3124;-2741;863;810;-577
480961;1;6;0;815;-227;3048;-2760;931;883;-379
480971;1;6;0;815;-282;2981;-2745;941;921;-228
480981;1;6;0;815;-275;2889;-2747;710;715;-144
480991;1;6;0;815;-300;2861;-2777;559;641;-100
481001;1;6;0;815;-375;2796;-2778;425;553;-116
481011;1;6;0;815;-483;2801;-2789;334;385;-164
481021;1;6;0;815;-551;2830;-2739;268;155;-206
481031;1;6;0;815;-584;2934;-2767;136;-147;-222
481041;1;6;0;815;-572;3057;-2786;35;-368;-120
481051;1;6;0;815;-471;3115;-2778;-38;-495;66
481061;1;6;0;815;-387;3092;-2765;-42;-538;220
481071;1;6;0;815;-316;3113;-2771;3;-479;337
481081;1;6;0;815;-303;3115;-2780;-29;-421;407
481091;1;6;0;816;-296;3127;-2827;-36;-397;471
481101;1;6;0;816;-300;3106;-2820;-87;-364;552
481111;1;6;0;816;-355;3053;-2792;-158;-318;598
481121;1;6;0;816;-383;2991;-2731;-223;-321;611
481131;1;6;0;816;-420;2933;-2709;-266;-377;609
481141;1;6;0;816;-461;2917;-2722;-287;-451;648
481151;1;6;0;816;-493;2948;-2682;-303;-526;790
481161;1;6;0;816;-518;2970;-2642;-303;-650;933
481171;1;6;0;816;-510;2991;-2647;-332;-790;1054
481181;1;6;0;816;-514;3046;-2632;-381;-924;1197
481191;1;6;0;816;-526;3086;-2596;-443;-1055;1335
481201;1;6;0;816;-532;3093;-2590;-536;-1123;1514
481211;1;6;0;816;-501;3075;-2563;-618;-1198;1718
481221;1;6;0;816;-479;3021;-2519;-662;-1227;1905
481231;1;6;0;816;-476;2989;-2495;-714;-1181;2078
481241;1;6;0;816;-457;2965;-2496;-778;-1140;2217
481251;1;6;0;816;-504;2961;-2530;-889;-1175;2284
481261;1;6;0;816;-520;2997;-2562;-1063;-1285;2232
481271;1;6;0;816;-582;3135;-2597;-1270;-1458;2068
481281;1;6;0;816;-697;3285;-2585;-1503;-1624;1948
481291;1;6;0;816;-878;3309;-2504;-1692;-1725;1902
481301;1;6;0;816;-991;3357;-2413;-1808;-1820;1913
481311;1;6;0;816;-1116;3374;-2364;-1928;-1963;1904
481321;1;6;0;816;-1155;3357;-2310;-2047;-2240;1808
481331;1;6;0;816;-1076;3411;-2283;-2119;-2568;1643
481341;1;6;0;816;-938;3595;-2296;-2062;-2694;1463
481351;1;6;0;816;-843;3730;-2314;-2048;-2725;1308
481361;1;6;0;816;-797;3768;-2311;-2032;-2742;1192
481371;1;6;0;816;-604;3728;-2312;-2005;-2649;1178
481381;1;6;0;816;-391;3557;-2286;-1879;-2513;1203
481391;1;6;0;816;-277;3425;-2252;-1661;-2548;1304
481401;1;6;0;816;-164;3337;-2201;-1460;-2773;1358
481411;1;6;0;816;-40;3301;-2172;-1401;-2978;1370
481421;1;6;0;816;7;3235;-2305;-1284;-3171;1446
481431;1;6;0;816;132;3220;-2428;-1170;-3163;1596
481441;1;6;0;816;335;3197;-2546;-1163;-2859;1771
481451;1;6;0;816;507;3159;-2627;-1093;-2503;1809
481461;1;6;0;816;582;3131;-2601;-992;-2207;1707
481471;1;6;0;816;509;3157;-2558;-955;-1923;1458
481481;1;6;0;816;363;3249;-2512;-899;-1709;1165
481491;1;6;0;816;230;3377;-2460;-875;-1555;885
481501;1;6;0;816;123;3551;-2472;-868;-1438;746
481511;1;6;0;816;38;3602;-2485;-872;-1369;682
481521;1;6;0;816;-28;3572;-2447;-766;-1319;647
481531;1;6;0;816;-16;3620;-2429;-682;-1189;704
481541;1;6;0;816;-68;3556;-2420;-595;-951;784
481551;1;6;0;816;-20;3475;-2399;-474;-748;901
481561;1;6;0;816;41;3378;-2363;-371;-579;962
481571;1;6;0;816;134;3292;-2357;-272;-427;910
481581;1;6;0;816;178;3199;-2327;-190;-263;799
481591;1;6;0;817;209;3142;-2301;-166;-41;622
481601;1;6;0;817;213;3095;-2307;-145;135;447
481611;1;6;0;817;210;3105;-2345;-175;309;175
481621;1;6;0;817;186;3106;-2349;-225;432;-115
481631;1;6;0;817;200;3162;-2371;-225;517;-343
481641;1;6;0;817;199;3212;-2345;-153;656;-553
481651;1;6;0;817;184;3262;-2296;-58;782;-675
481661;1;6;0;817;105;3289;-2225;63;882;-772
481671;1;6;0;817;10;3327;-2157;186;910;-842
481681;1;6;0;817;-46;3425;-2163;283;858;-864
481691;1;6;0;817;-78;3474;-2165;349;773;-814
481701;1;6;0;817;-50;3517;-2177;388;708;-724
481711;1;6;0;817;16;3533;-2171;441;706;-603
481721;1;6;0;817;58;3532;-2111;481;765;-486
481731;1;6;0;817;71;3457;-2058;537;739;-412
481741;1;6;0;817;90;3475;-2043;624;694;-437
481751;1;6;0;817;96;3496;-2075;677;663;-532
481761;1;6;0;817;55;3495;-2085;734;682;-602
481771;1;6;0;817;51;3473;-2096;814;773;-608
481781;1;6;0;817;83;3389;-2159;904;937;-622
481791;1;6;0;817;108;3304;-2170;1019;1169;-690
481801;1;6;0;817;124;3191;-2143;1177;1419;-764
481811;1;6;0;817;106;3107;-2149;1307;1668;-901
481821;1;6;0;817;-16;2967;-2121;1410;1851;-1077
481831;1;6;0;817;-147;3018;-2153;1452;1804;-1285
481841;1;6;0;817;-344;3126;-2183;1361;1640;-1562
481851;1;6;0;817;-459;3204;-2291;1226;1388;-1830
481861;1;6;0;817;-542;3349;-2457;1047;1147;-2019
481871;1;6;0;817;-606;3404;-2524;956;1041;-2114
481881;1;6;0;817;-664;3425;-2470;958;1066;-2166
481891;1;6;0;817;-734;3550;-2380;969;1001;-2277
481901;1;6;0;817;-856;3795;-2360;846;757;-2517
481911;1;6;0;817;-1046;4101;-2478;571;264;-2912
481921;1;6;0;817;-1113;4328;-2547;271;-122;-3225
481931;1;6;0;817;-1041;4140;-2590;169;-7;-3242
481941;1;6;0;817;-923;3716;-2544;404;550;-2793
481951;1;6;0;817;-750;3380;-2562;935;1301;-2248
481961;1;6;0;817;-425;3069;-2617;1426;1937;-1670
481971;1;6;0;817;-153;2792;-2760;1792;2474;-1351
481981;1;6;0;817;3;2762;-2729;1772;2545;-1135
481991;1;6;0;817;-44;2679;-2707;1293;2458;-1227
482001;1;6;0;817;-168;2443;-2666;730;2163;-1371
482011;1;6;0;817;-413;2186;-2619;271;1512;-1455
482021;1;6;0;817;-551;2366;-2708;-15;761;-1740
482031;1;6;0;817;-485;2744;-2948;-336;113;-1951
482041;1;6;0;817;-420;3223;-3099;-615;-171;-2054
482051;1;6;0;817;-292;3464;-3098;-752;-84;-1888
482061;1;6;0;817;-225;3537;-2953;-658;247;-1437
482071;1;6;0;817;-146;3520;-2801;-397;652;-989
482081;1;6;0;817;-104;3417;-2637;-89;908;-663
482091;1;6;0;818;-98;3271;-2522;203;977;-599
482101;1;6;0;818;-102;3201;-2536;481;942;-660
482111;1;6;0;818;-163;3165;-2632;714;914;-655
482121;1;6;0;818;-224;3131;-2715;865;966;-580
482131;1;6;0;818;-287;3031;-2741;879;1042;-452
482141;1;6;0;818;-336;2922;-2738;777;1059;-327
482151;1;6;0;818;-349;2827;-2765;641;1055;-238
482161;1;6;0;818;-394;2726;-2710;467;919;-247
482171;1;6;0;818;-412;2680;-2679;341;690;-392
482181;1;6;0;818;-432;2786;-2711;233;440;-525
482191;1;6;0;818;-465;2839;-2736;147;262;-616
482201;1;6;0;818;-459;2973;-2788;19;99;-598
482211;1;6;0;818;-463;3100;-2851;-61;68;-463
482221;1;6;0;818;-400;3148;-2868;-151;57;-230
482231;1;6;0;818;-358;3161;-2858;-181;94;-18
482241;1;6;0;818;-333;3127;-2813;-186;154;183
482251;1;6;0;818;-351;3109;-2810;-201;158;261
482261;1;6;0;818;-421;3042;-2743;-233;114;265
482271;1;6;0;818;-429;2987;-2750;-284;35;185
482281;1;6;0;818;-436;2961;-2746;-335;17;122
482291;1;6;0;818;-449;2933;-2794;-376;16;90
482301;1;6;0;818;-502;2905;-2848;-394;-12;93
482311;1;6;0;818;-502;2957;-2867;-412;-66;160
482321;1;6;0;818;-520;3021;-2815;-476;-134;281
482331;1;6;0;818;-515;3033;-2732;-544;-251;365
482341;1;6;0;818;-475;3044;-2638;-634;-367;464
482351;1;6;0;818;-437;3055;-2615;-689;-411;542
482361;1;6;0;818;-442;3084;-2582;-748;-441;691
482371;1;6;0;818;-415;3143;-2640;-831;-439;880
482381;1;6;0;818;-221;3238;-2719;-950;-379;1204
482391;1;6;0;818;-177;3296;-2694;-986;-322;1304
482401;1;6;0;818;-256;3208;-2665;-1037;-242;1500
482411;1;6;0;818;-289;3254;-2573;-1070;-239;1699
482421;1;6;0;818;-381;3217;-2515;-1147;-209;1896
482431;1;6;0;818;-547;3118;-2416;-1257;-322;2055
482441;1;6;0;818;-634;3155;-2440;-1384;-567;2120
482451;1;6;0;818;-707;3275;-2483;-1572;-825;2116
482461;1;6;0;818;-713;3398;-2492;-1762;-1052;2125
482471;1;6;0;818;-779;3547;-2484;-1933;-1216;2139
482481;1;6;0;818;-867;3706;-2413;-2140;-1331;2065
482491;1;6;0;818;-954;3735;-2457;-2241;-1632;1938
482501;1;6;0;818;-885;3881;-2514;-2179;-2025;1795
482511;1;6;0;818;-665;4018;-2595;-2085;-2075;1556
482521;1;6;0;818;-454;3982;-2586;-1945;-1796;1225
482531;1;6;0;818;-569;3924;-2477;-1768;-1721;1021
482541;1;6;0;818;-789;3915;-2286;-1645;-1829;1321
482551;1;6;0;818;-814;3672;-2197;-1439;-1928;2070
482561;1;6;0;818;-563;3351;-2217;-1174;-2198;3106
482571;1;6;0;818;-153;3094;-2186;-1012;-2295;4034
482581;1;6;0;818;73;2592;-2078;-906;-2323;4519
482591;1;6;0;819;330;2270;-2021;-820;-2527;4316
482601;1;6;0;819;439;2216;-2017;-800;-2720;3648
482611;1;6;0;819;434;2347;-2136;-814;-2923;2807
482621;1;6;0;819;393;2660;-2238;-867;-3071;1999
482631;1;6;0;819;359;3042;-2405;-899;-2921;1446
482641;1;6;0;819;426;3365;-2558;-981;-2546;1136
482651;1;6;0;819;420;3560;-2661;-1021;-1996;1011
482661;1;6;0;819;311;3645;-2662;-1013;-1646;917
482671;1;6;0;819;146;3742;-2604;-944;-1469;912
482681;1;6;0;819;110;3753;-2501;-840;-1372;1016
482691;1;6;0;819;144;3702;-2418;-659;-1233;1136
482701;1;6;0;819;221;3560;-2440;-453;-1098;1206
482711;1;6;0;819;270;3381;-2505;-248;-947;1192
482721;1;6;0;819;390;3267;-2514;-101;-740;1103
482731;1;6;0;819;421;3204;-2521;64;-498;971
482741;1;6;0;819;375;3165;-2447;6;-360;886
482751;1;6;0;819;358;3114;-2349;-31;-189;735
482761;1;6;0;819;307;3069;-2311;-166;-52;536
482771;1;6;0;819;283;3045;-2284;-303;98;279
482781;1;6;0;819;300;3044;-2314;-394;235;14
482791;1;6;0;819;344;3080;-2359;-417;398;-242
482801;1;6;0;819;367;3128;-2400;-355;592;-454
482811;1;6;0;819;329;3169;-2366;-240;780;-604
482821;1;6;0;819;307;3189;-2317;-127;940;-728
482831;1;6;0;819;263;3226;-2242;-28;1051;-800
482841;1;6;0;819;262;3254;-2179;75;1139;-851
482851;1;6;0;819;297;3221;-2129;173;1167;-942
482861;1;6;0;819;238;3241;-2080;275;1079;-1081
482871;1;6;0;819;194;3261;-2084;367;952;-1175
482881;1;6;0;819;123;3328;-2130;460;790;-1222
482891;1;6;0;819;128;3407;-2214;561;675;-1167
482901;1;6;0;819;205;3424;-2276;660;665;-1099
482911;1;6;0;819;321;3404;-2329;783;719;-1004
482921;1;6;0;819;341;3378;-2302;873;759;-1014
482931;1;6;0;819;253;3393;-2255;953;742;-1087
482941;1;6;0;819;98;3434;-2215;1009;679;-1142
482951;1;6;0;819;23;3427;-2223;1062;675;-1127
482961;1;6;0;819;85;3347;-2295;1113;823;-1112
482971;1;6;0;819;130;3280;-2303;1182;999;-1113
482981;1;6;0;819;152;3202;-2299;1262;1185;-1152
482991;1;6;0;819;174;3148;-2290;1361;1388;-1280
483001;1;6;0;819;129;2939;-2280;1474;1650;-1488
483011;1;6;0;819;112;2953;-2309;1656;1783;-1718
483021;1;6;0;819;-25;3054;-2376;1700;1892;-1984
483031;1;6;0;819;-188;3063;-2433;1635;1846;-2176
483041;1;6;0;819;-358;3138;-2441;1493;1645;-2405
483051;1;6;0;819;-523;3379;-2467;1293;1371;-2712
483061;1;6;0;819;-845;3880;-2604;1006;828;-3188
483071;1;6;0;819;-1143;4275;-2715;616;299;-3576
483081;1;6;0;819;-1134;4622;-2826;177;-71;-3809
483091;1;6;0;820;-834;4656;-2771;-85;299;-3695
483101;1;6;0;820;-569;4128;-2693;0;1092;-3309
483111;1;6;0;820;-350;3547;-2688;424;1770;-2851
483121;1;6;0;820;21;3016;-2761;1120;2402;-2627
483131;1;6;0;820;313;2617;-3009;1757;3069;-2796
483141;1;6;0;820;328;2595;-2931;2178;3444;-3031
483151;1;6;0;820;38;2905;-2870;1815;3709;-3406
483161;1;6;0;820;-561;2861;-2586;1043;3556;-3361
483171;1;6;0;820;-954;2416;-2405;317;2938;-2844
483181;1;6;0;820;-1145;2225;-2306;-14;1990;-2324
483191;1;6;0;820;-939;2420;-2406;-133;887;-2000
483201;1;6;0;820;-604;2771;-2522;-477;-58;-1949
483211;1;6;0;820;-276;3303;-2640;-636;-439;-2025
483221;1;6;0;820;-35;3816;-2668;-762;-309;-1919
483231;1;6;0;820;89;3853;-2624;-647;313;-1684
483241;1;6;0;820;-63;3550;-2600;-355;654;-1442
483251;1;6;0;820;-135;3474;-2653;-100;783;-1263
483261;1;6;0;820;-182;3324;-2673;97;770;-997
483271;1;6;0;820;-139;3299;-2697;264;729;-702
483281;1;6;0;820;-112;3264;-2688;401;761;-448
483291;1;6;0;820;-134;3185;-2697;600;942;-366
483301;1;6;0;820;-162;3050;-2755;640;1033;-350
483311;1;6;0;820;-204;2913;-2781;623;1073;-392
483321;1;6;0;820;-264;2802;-2795;391;870;-372
483331;1;6;0;820;-343;2765;-2817;233;681;-353
483341;1;6;0;820;-416;2728;-2812;117;437;-276
483351;1;6;0;820;-482;2784;-2778;66;196;-201
483361;1;6;0;820;-507;2882;-2735;43;-8;-158
483371;1;6;0;820;-470;3018;-2729;-108;-192;-17
483381;1;6;0;820;-464;3090;-2727;-209;-305;133
483391;1;6;0;820;-409;3126;-2760;-302;-407;290
483401;1;6;0;820;-355;3143;-2781;-317;-437;394
483411;1;6;0;820;-287;3173;-2809;-348;-421;459
483421;1;6;0;820;-226;3154;-2821;-409;-371;532
483431;1;6;0;820;-247;3062;-2775;-466;-322;591
483441;1;6;0;820;-284;2992;-2717;-495;-295;607
483451;1;6;0;820;-369;2955;-2644;-508;-313;604
483461;1;6;0;820;-461;2985;-2613;-520;-426;569
483471;1;6;0;820;-496;3040;-2659;-521;-557;580
483481;1;6;0;820;-503;3115;-2723;-516;-669;688
483491;1;6;0;820;-502;3140;-2714;-602;-766;935
483501;1;6;0;820;-461;3170;-2663;-683;-843;1203
483511;1;6;0;820;-423;3159;-2610;-793;-924;1439
483521;1;6;0;820;-382;3125;-2578;-857;-1015;1594
483531;1;6;0;820;-371;3126;-2554;-878;-1111;1691
483541;1;6;0;820;-422;3129;-2584;-895;-1164;1769
483551;1;6;0;820;-442;3123;-2591;-905;-1195;1864
483561;1;6;0;820;-474;3094;-2620;-964;-1195;1997
483571;1;6;0;820;-523;3045;-2600;-1047;-1243;2158
483581;1;6;0;820;-615;3000;-2500;-1153;-1395;2319
483591;1;6;0;821;-744;3010;-2425;-1272;-1664;2425
483601;1;6;0;821;-844;3099;-2396;-1408;-1983;2466
483611;1;6;0;821;-858;3214;-2413;-1571;-2275;2527
483621;1;6;0;821;-797;3281;-2474;-1673;-2436;2645
483631;1;6;0;821;-719;3357;-2464;-1736;-2452;2744
483641;1;6;0;821;-730;3408;-2418;-1733;-2473;2749
483651;1;6;0;821;-691;3559;-2404;-1673;-2589;2570
483661;1;6;0;821;-456;3694;-2434;-1528;-2625;2178
483671;1;6;0;821;-33;3652;-2583;-1278;-2271;1698
483681;1;6;0;821;213;3445;-2641;-1030;-1877;1329
483691;1;6;0;821;149;3278;-2669;-680;-1772;980
483701;1;6;0;821;-75;3361;-2538;-339;-2032;917
483711;1;6;0;821;-347;3439;-2390;-196;-2242;1186
483721;1;6;0;821;-352;3425;-2381;-109;-2304;1698
483731;1;6;0;821;-187;3371;-2522;-162;-2114;2270
483741;1;6;0;821;-17;3186;-2587;-331;-1975;2655
483751;1;6;0;821;133;3006;-2556;-467;-1946;2681
483761;1;6;0;821;268;2975;-2549;-534;-2011;2302
483771;1;6;0;821;383;3042;-2580;-609;-1954;1764
483781;1;6;0;821;405;3154;-2581;-677;-1757;1332
483791;1;6;0;821;414;3284;-2563;-751;-1456;1048
483801;1;6;0;821;349;3379;-2515;-791;-1118;788
483811;1;6;0;821;275;3421;-2475;-809;-835;560
483821;1;6;0;821;176;3446;-2453;-790;-622;369
483831;1;6;0;821;129;3409;-2441;-725;-426;257
483841;1;6;0;821;130;3382;-2463;-660;-227;219
483851;1;6;0;821;133;3277;-2451;-637;-66;194
483861;1;6;0;821;193;3143;-2410;-593;-12;101
483871;1;6;0;821;243;3030;-2358;-545;12;-69
483881;1;6;0;821;249;3026;-2276;-481;28;-255
483891;1;6;0;821;261;3065;-2227;-428;67;-408
483901;1;6;0;821;298;3098;-2219;-370;121;-517
483911;1;6;0;821;301;3158;-2226;-331;150;-600
483921;1;6;0;821;318;3230;-2276;-318;182;-694
483931;1;6;0;821;359;3289;-2297;-277;225;-714
483941;1;6;0;821;334;3272;-2315;-177;341;-681
483951;1;6;0;821;325;3293;-2266;-53;462;-674
483961;1;6;0;821;270;3297;-2247;73;561;-699
483971;1;6;0;821;255;3327;-2250;183;618;-739
483981;1;6;0;821;284;3355;-2283;257;638;-761
483991;1;6;0;821;257;3402;-2316;301;624;-774
484001;1;6;0;821;216;3442;-2303;310;559;-766
484011;1;6;0;821;151;3473;-2293;321;461;-771
484021;1;6;0;821;93;3465;-2270;308;430;-789
484031;1;6;0;821;86;3413;-2243;316;462;-810
484041;1;6;0;821;95;3374;-2278;315;543;-826
484051;1;6;0;821;140;3319;-2325;363;641;-816
484061;1;6;0;821;175;3270;-2338;442;766;-825
484071;1;6;0;821;172;3275;-2400;525;875;-863
484081;1;6;0;821;164;3273;-2445;594;987;-866
484091;1;6;0;822;144;3259;-2466;643;1090;-886
484101;1;6;0;822;133;3229;-2452;664;1202;-940
484111;1;6;0;822;166;3165;-2473;686;1345;-1066
484121;1;6;0;822;160;3076;-2491;742;1503;-1263
484131;1;6;0;822;154;3045;-2516;821;1643;-1462
484141;1;6;0;822;93;2994;-2549;941;1779;-1647
484151;1;6;0;822;26;3040;-2529;1071;1833;-1763
484161;1;6;0;822;-76;3165;-2551;1151;1761;-1903
484171;1;6;0;822;-44;3246;-2600;1183;1777;-1983
484181;1;6;0;822;-14;3277;-2637;1204;1883;-2050
484191;1;6;0;822;-90;3271;-2608;1217;1992;-2216
484201;1;6;0;822;-244;3310;-2540;1166;2023;-2526
484211;1;6;0;822;-431;3401;-2512;1072;1925;-2894
484221;1;6;0;822;-599;3524;-2547;884;1743;-3226
484231;1;6;0;822;-738;3612;-2636;676;1499;-3487
484241;1;6;0;822;-862;3684;-2553;530;1323;-3729
484251;1;6;0;822;-864;3693;-2481;421;1378;-3728
484261;1;6;0;822;-769;3511;-2379;496;1767;-3442
484271;1;6;0;822;-602;3231;-2378;647;2325;-3155
484281;1;6;0;822;-409;2977;-2439;981;2837;-2793
484291;1;6;0;822;-290;2688;-2605;1240;3161;-2578
484301;1;6;0;822;-298;2505;-2808;1173;3457;-2819
484311;1;6;0;822;-35;2511;-2790;1000;3241;-3245
484321;1;6;0;822;-49;2637;-2782;774;3152;-3809
484331;1;6;0;822;-426;2692;-2736;455;2849;-4250
484341;1;6;0;822;-852;2979;-2644;26;2327;-4558
484351;1;6;0;822;-979;3175;-2663;-375;1854;-4476
484361;1;6;0;822;-906;3301;-2844;-596;1516;-4051
484371;1;6;0;822;-806;3410;-2972;-648;1275;-3417
484381;1;6;0;822;-716;3504;-2978;-555;1086;-2774
484391;1;6;0;822;-615;3605;-2890;-363;1042;-2190
484401;1;6;0;822;-485;3642;-2889;-156;1137;-1727
484411;1;6;0;822;-370;3580;-2913;115;1310;-1266
484421;1;6;0;822;-178;3510;-2842;337;1477;-802
484431;1;6;0;822;-11;3313;-2757;579;1724;-557
484441;1;6;0;822;105;3147;-2707;654;1937;-423
484451;1;6;0;822;114;2924;-2659;730;2003;-450
484461;1;6;0;822;38;2760;-2624;681;1782;-624
484471;1;6;0;822;-19;2730;-2662;497;1457;-877
484481;1;6;0;822;-124;2725;-2718;331;1224;-1121
484491;1;6;0;822;-301;2675;-2804;248;1078;-1222
484501;1;6;0;822;-425;2678;-2856;215;888;-1160
484511;1;6;0;822;-529;2829;-2859;79;651;-932
484521;1;6;0;822;-611;2875;-2842;-143;350;-622
484531;1;6;0;822;-598;2938;-2844;-226;172;-392
484541;1;6;0;822;-509;3031;-2836;-297;43;-127
484551;1;6;0;822;-475;3054;-2775;-340;-93;62
484561;1;6;0;822;-419;3080;-2784;-347;-170;176
484571;1;6;0;822;-348;3108;-2746;-361;-196;276
484581;1;6;0;822;-330;3080;-2754;-386;-143;339
484591;1;6;0;823;-288;3013;-2721;-463;-112;382
484601;1;6;0;823;-304;2947;-2709;-534;-132;389
484611;1;6;0;823;-329;2905;-2715;-525;-166;378
484621;1;6;0;823;-374;2903;-2719;-517;-242;407
484631;1;6;0;823;-412;2919;-2721;-516;-332;456
484641;1;6;0;823;-404;2959;-2773;-578;-449;514
484651;1;6;0;823;-389;3008;-2819;-622;-534;548
484661;1;6;0;823;-435;3003;-2798;-726;-655;596
484671;1;6;0;823;-446;3047;-2772;-804;-755;606
484681;1;6;0;823;-449;3097;-2779;-879;-813;675
484691;1;6;0;823;-461;3119;-2807;-931;-821;795
484701;1;6;0;823;-470;3165;-2844;-967;-839;949
484711;1;6;0;823;-460;3174;-2857;-1000;-853;1186
484721;1;6;0;823;-466;3112;-2832;-1052;-858;1464
484731;1;6;0;823;-428;3072;-2773;-1091;-900;1713
484741;1;6;0;823;-417;2991;-2711;-1155;-1000;1897
484751;1;6;0;823;-431;2940;-2650;-1225;-1174;1966
484761;1;6;0;823;-456;2946;-2630;-1298;-1462;1978
484771;1;6;0;823;-517;3032;-2625;-1354;-1812;2056
484781;1;6;0;823;-575;3128;-2566;-1356;-2124;2258
484791;1;6;0;823;-612;3206;-2575;-1316;-2358;2493
484801;1;6;0;823;-621;3300;-2573;-1271;-2509;2722
484811;1;6;0;823;-547;3326;-2551;-1232;-2547;2909
484821;1;6;0;823;-454;3320;-2456;-1230;-2469;2994
484831;1;6;0;823;-439;3253;-2367;-1217;-2382;3010
484841;1;6;0;823;-603;3210;-2226;-1139;-2456;2970
484851;1;6;0;823;-889;3311;-2161;-1085;-2752;2841
484861;1;6;0;823;-979;3527;-2287;-1107;-3120;2651
484871;1;6;0;823;-794;3724;-2501;-1172;-3411;2496
484881;1;6;0;823;-613;3831;-2649;-1304;-3461;2467
484891;1;6;0;823;-583;3828;-2658;-1437;-3408;2541
484901;1;6;0;823;-549;3732;-2536;-1559;-3460;2567
484911;1;6;0;823;-537;3659;-2432;-1593;-3547;2632
484921;1;6;0;823;-420;3533;-2387;-1567;-3632;2753
484931;1;6;0;823;-272;3392;-2385;-1504;-3639;2925
484941;1;6;0;823;-142;3261;-2359;-1418;-3659;3069
484951;1;6;0;823;-46;3124;-2306;-1354;-3662;3174
484961;1;6;0;823;108;3006;-2276;-1286;-3594;3190
484971;1;6;0;823;265;2987;-2344;-1208;-3457;3088
484981;1;6;0;823;456;3036;-2402;-1162;-3247;2836
484991;1;6;0;823;557;3091;-2452;-1139;-2952;2459
485001;1;6;0;823;531;3186;-2484;-1115;-2602;2096
485011;1;6;0;823;426;3286;-2462;-1113;-2266;1811
485021;1;6;0;823;352;3352;-2419;-1126;-1994;1602
485031;1;6;0;823;316;3393;-2398;-1123;-1724;1435
485041;1;6;0;823;285;3346;-2333;-1061;-1457;1325
485051;1;6;0;823;272;3264;-2299;-945;-1187;1260
485061;1;6;0;823;215;3188;-2314;-808;-1035;1186
485071;1;6;0;823;221;3174;-2269;-683;-988;1084
485081;1;6;0;823;212;3129;-2254;-570;-972;990
485091;1;6;0;824;220;3080;-2219;-387;-941;909
485101;1;6;0;824;210;3044;-2168;-252;-887;864
485111;1;6;0;824;157;3037;-2131;-145;-893;791
485121;1;6;0;824;140;3091;-2108;-61;-952;676
485131;1;6;0;824;91;3180;-2103;-11;-1012;566
485141;1;6;0;824;106;3352;-2169;2;-1026;514
485151;1;6;0;824;145;3420;-2232;10;-948;539
485161;1;6;0;824;207;3469;-2256;53;-802;563
485171;1;6;0;824;251;3501;-2237;125;-650;545
485181;1;6;0;824;284;3456;-2238;211;-518;485
485191;1;6;0;824;284;3434;-2251;322;-410;376
485201;1;6;0;824;270;3432;-2268;412;-334;276
485211;1;6;0;824;225;3414;-2254;476;-284;187
485221;1;6;0;824;173;3407;-2231;520;-242;95
485231;1;6;0;824;128;3340;-2222;566;-189;18
485241;1;6;0;824;165;3299;-2250;619;-83;-87
485251;1;6;0;824;244;3238;-2272;706;83;-220
485261;1;6;0;824;218;3225;-2265;798;216;-367
485271;1;6;0;824;178;3261;-2270;852;271;-503
485281;1;6;0;824;147;3300;-2321;871;298;-613
485291;1;6;0;824;179;3333;-2375;908;374;-669
485301;1;6;0;824;202;3335;-2411;929;578;-745
485311;1;6;0;824;185;3308;-2466;963;802;-905
485321;1;6;0;824;147;3280;-2463;996;912;-1041
485331;1;6;0;824;71;3252;-2399;1035;1002;-1199
485341;1;6;0;824;-26;3265;-2320;1092;1065;-1311
485351;1;6;0;824;-94;3265;-2258;1169;1106;-1341
485361;1;6;0;824;-107;3328;-2290;1258;1095;-1328
485371;1;6;0;824;-50;3379;-2359;1359;1167;-1253
485381;1;6;0;824;45;3356;-2464;1474;1239;-1246
485391;1;6;0;824;-50;3392;-2484;1575;1189;-1345
485401;1;6;0;824;-286;3636;-2487;1560;925;-1499
485411;1;6;0;824;-607;4073;-2507;1305;496;-1677
485421;1;6;0;824;-807;4494;-2573;861;12;-1707
485431;1;6;0;824;-895;4565;-2571;310;-214;-1477
485441;1;6;0;824;-608;4223;-2489;18;81;-1069
485451;1;6;0;824;-354;3494;-2349;107;762;-703
485461;1;6;0;824;5;2975;-2274;509;1322;-753
485471;1;6;0;824;328;2560;-2312;987;1775;-1125
485481;1;6;0;824;515;2365;-2418;1521;2023;-1703
485491;1;6;0;824;387;2545;-2590;1744;2296;-2340
485501;1;6;0;824;16;2794;-2685;1502;2518;-3030
485511;1;6;0;824;-330;2829;-2731;1059;2650;-3492
485521;1;6;0;824;-703;2688;-2705;543;2646;-3663
485531;1;6;0;824;-821;2488;-2765;135;2480;-3646
485541;1;6;0;824;-759;2410;-2834;-98;2049;-3569
485551;1;6;0;824;-526;2632;-2810;-295;1555;-3612
485561;1;6;0;824;-443;2889;-2867;-294;1259;-3640
485571;1;6;0;824;-513;3145;-2960;54;1214;-3602
485581;1;6;0;824;-594;3410;-2967;-16;1235;-3347
485591;1;6;0;825;-671;3553;-2985;18;1168;-2930
485601;1;6;0;825;-612;3576;-2954;44;1044;-2388
485611;1;6;0;825;-467;3520;-2970;158;1056;-1835
485621;1;6;0;825;-283;3392;-2942;364;1268;-1302
485631;1;6;0;825;-82;3234;-2901;621;1511;-919
485641;1;6;0;825;75;3083;-2824;860;1710;-779
485651;1;6;0;825;174;2941;-2806;894;1779;-927
485661;1;6;0;825;177;2916;-2822;907;1863;-1121
485671;1;6;0;825;90;2863;-2811;829;1877;-1267
485681;1;6;0;825;-20;2766;-2758;811;1883;-1406
485691;1;6;0;825;-107;2729;-2729;651;1735;-1409
485701;1;6;0;825;-197;2716;-2742;405;1651;-1439
485711;1;6;0;825;-297;2754;-2796;296;1531;-1438
485721;1;6;0;825;-369;2826;-2859;203;1315;-1311
485731;1;6;0;825;-472;2876;-2845;-8;1016;-1132
485741;1;6;0;825;-515;2936;-2797;-271;624;-904
485751;1;6;0;825;-557;3027;-2716;-304;463;-750
485761;1;6;0;825;-585;3105;-2752;-326;326;-536
485771;1;6;0;825;-507;3155;-2753;-390;133;-299
485781;1;6;0;825;-427;3176;-2781;-334;93;-108
485791;1;6;0;825;-360;3118;-2718;-277;39;70
485801;1;6;0;825;-304;3095;-2678;-257;51;210
485811;1;6;0;825;-313;3019;-2636;-264;7;285
485821;1;6;0;825;-289;2967;-2604;-280;-79;265
485831;1;6;0;825;-262;2980;-2673;-233;-136;205
485841;1;6;0;825;-276;3001;-2735;-205;-185;184
485851;1;6;0;825;-286;3036;-2791;-221;-250;195
485861;1;6;0;825;-291;3058;-2781;-283;-274;318
485871;1;6;0;825;-296;3083;-2809;-396;-338;499
485881;1;6;0;825;-315;3111;-2792;-508;-415;694
485891;1;6;0;825;-341;3124;-2763;-608;-497;879
485901;1;6;0;825;-373;3099;-2726;-684;-575;1043
485911;1;6;0;825;-403;3029;-2675;-750;-645;1173
485921;1;6;0;825;-456;2979;-2639;-789;-777;1293
485931;1;6;0;825;-485;3062;-2652;-835;-974;1387
485941;1;6;0;825;-508;3092;-2720;-991;-1150;1536
485951;1;6;0;825;-487;3126;-2728;-1210;-1269;1716
485961;1;6;0;825;-462;3125;-2708;-1323;-1326;2019
485971;1;6;0;825;-490;3169;-2706;-1456;-1407;2207
485981;1;6;0;825;-485;3295;-2700;-1553;-1528;2288
485991;1;6;0;825;-598;3296;-2648;-1622;-1635;2294
486001;1;6;0;825;-612;3270;-2623;-1661;-1771;2223
486011;1;6;0;825;-564;3284;-2603;-1681;-1836;2148
486021;1;6;0;825;-570;3276;-2537;-1703;-1853;2015
486031;1;6;0;825;-558;3300;-2465;-1718;-1913;1871
486041;1;6;0;825;-528;3256;-2406;-1723;-1964;1710
486051;1;6;0;825;-482;3255;-2360;-1706;-2065;1496
486061;1;6;0;825;-484;3305;-2305;-1672;-2216;1259
486071;1;6;0;825;-501;3338;-2251;-1618;-2405;1079
486081;1;6;0;825;-605;3421;-2241;-1561;-2671;988
486091;1;6;0;826;-697;3575;-2246;-1531;-3018;1096
486101;1;6;0;826;-777;3605;-2265;-1536;-3354;1407
486111;1;6;0;826;-668;3607;-2240;-1504;-3570;1830
486121;1;6;0;826;-455;3621;-2262;-1395;-3570;2253
486131;1;6;0;826;-219;3521;-2239;-1311;-3406;2611
486141;1;6;0;826;66;3410;-2123;-1037;-3409;2635
486151;1;6;0;826;247;3264;-2241;-1055;-3132;2621
486161;1;6;0;826;388;3244;-2275;-1033;-3078;2337
486171;1;6;0;826;447;3321;-2365;-1027;-2952;1945
486181;1;6;0;826;356;3351;-2397;-1013;-2764;1588
486191;1;6;0;826;244;3463;-2451;-952;-2519;1324
486201;1;6;0;826;102;3544;-2474;-894;-2323;1150
486211;1;6;0;826;52;3567;-2502;-986;-2127;1130
486221;1;6;0;826;66;3523;-2509;-1035;-1925;1149
486231;1;6;0;826;61;3428;-2536;-1034;-1717;1203
486241;1;6;0;826;94;3310;-2482;-983;-1521;1256
486251;1;6;0;826;202;3209;-2477;-901;-1368;1191
486261;1;6;0;826;262;3169;-2471;-792;-1207;1034
486271;1;6;0;826;267;3164;-2465;-715;-1060;864
486281;1;6;0;826;214;3153;-2384;-660;-993;684
486291;1;6;0;826;165;3185;-2309;-651;-969;554
486301;1;6;0;826;162;3212;-2266;-604;-856;417
486311;1;6;0;826;148;3213;-2226;-550;-736;294
486321;1;6;0;826;143;3215;-2201;-458;-652;171
486331;1;6;0;826;100;3209;-2157;-348;-615;65
486341;1;6;0;826;100;3228;-2124;-237;-629;-35
486351;1;6;0;826;67;3244;-2127;-139;-623;-99
486361;1;6;0;826;75;3252;-2081;-20;-586;-115
486371;1;6;0;826;94;3249;-2080;110;-517;-145
486381;1;6;0;826;105;3252;-2063;221;-443;-173
486391;1;6;0;826;107;3249;-2089;277;-411;-233
486401;1;6;0;826;117;3241;-2119;316;-414;-341
486411;1;6;0;826;122;3274;-2189;337;-395;-486
486421;1;6;0;826;62;3298;-2231;347;-383;-592
486431;1;6;0;826;-5;3334;-2251;339;-369;-677
486441;1;6;0;826;-56;3356;-2198;358;-346;-675
486451;1;6;0;826;-109;3377;-2197;405;-329;-670
486461;1;6;0;826;-95;3406;-2245;480;-308;-669
486471;1;6;0;826;-89;3457;-2284;565;-274;-647
486481;1;6;0;826;-85;3503;-2329;674;-232;-589
486491;1;6;0;826;-58;3497;-2362;805;-111;-483
486501;1;6;0;826;-12;3443;-2405;937;94;-382
486511;1;6;0;826;47;3366;-2427;1081;325;-356
486521;1;6;0;826;77;3242;-2415;1212;543;-411
486531;1;6;0;826;90;3137;-2430;1321;731;-582
486541;1;6;0;826;154;3017;-2458;1437;957;-852
486551;1;6;0;826;185;2904;-2505;1528;1200;-1098
486561;1;6;0;826;113;2855;-2513;1688;1467;-1355
486571;1;6;0;826;13;2840;-2517;1756;1609;-1624
486581;1;6;0;826;-103;2944;-2530;1796;1621;-1923
486591;1;6;0;827;-370;3136;-2529;1737;1469;-2260
486601;1;6;0;827;-635;3410;-2588;1517;1162;-2509
486611;1;6;0;827;-877;3883;-2687;1189;830;-2762
486621;1;6;0;827;-1068;4233;-2747;767;576;-2815
486631;1;6;0;827;-1117;4376;-2685;361;416;-2622
486641;1;6;0;827;-1035;4279;-2552;199;646;-2277
486651;1;6;0;827;-726;3808;-2432;273;1248;-1929
486661;1;6;0;827;-459;3346;-2340;588;1853;-1674
486671;1;6;0;827;-254;2989;-2356;961;2388;-1697
486681;1;6;0;827;-141;2725;-2471;1243;2659;-1931
486691;1;6;0;827;-21;2581;-2538;1422;2676;-2368
486701;1;6;0;827;-74;2633;-2587;1334;2591;-2802
486711;1;6;0;827;-333;2759;-2602;992;2434;-3114
486721;1;6;0;827;-729;2942;-2408;439;2363;-3373
486731;1;6;0;827;-793;2857;-2487;123;1979;-3245
486741;1;6;0;827;-820;2879;-2570;-81;1608;-2985
486751;1;6;0;827;-739;2970;-2732;-193;1251;-2692
486761;1;6;0;827;-737;3151;-2751;-268;886;-2409
486771;1;6;0;827;-658;3345;-2674;-206;671;-2170
486781;1;6;0;827;-601;3445;-2637;-51;580;-1909
486791;1;6;0;827;-563;3464;-2671;86;531;-1585
486801;1;6;0;827;-522;3454;-2709;208;474;-1242
486811;1;6;0;827;-406;3453;-2802;306;457;-881
486821;1;6;0;827;-340;3385;-2855;416;475;-585
486831;1;6;0;827;-279;3297;-2881;503;563;-417
486841;1;6;0;827;-305;3176;-2861;556;626;-327
486851;1;6;0;827;-328;3059;-2860;600;634;-283
486861;1;6;0;827;-307;2967;-2863;593;647;-315
486871;1;6;0;827;-345;2875;-2833;509;628;-338
486881;1;6;0;827;-385;2808;-2839;448;625;-377
486891;1;6;0;827;-426;2726;-2833;394;602;-376
486901;1;6;0;827;-479;2676;-2822;359;560;-374
486911;1;6;0;827;-569;2664;-2788;354;473;-369
486921;1;6;0;827;-651;2703;-2755;272;340;-342
486931;1;6;0;827;-723;2801;-2754;157;141;-255
486941;1;6;0;827;-727;2847;-2739;29;-50;-191
486951;1;6;0;827;-725;2955;-2721;-98;-255;-125
486961;1;6;0;827;-670;3056;-2723;-229;-431;-95
486971;1;6;0;827;-630;3090;-2756;-252;-465;-28
486981;1;6;0;827;-582;3097;-2756;-267;-489;54
486991;1;6;0;827;-553;3070;-2722;-312;-502;144
487001;1;6;0;827;-529;3017;-2645;-331;-509;225
487011;1;6;0;827;-573;2990;-2618;-330;-543;312
487021;1;6;0;827;-599;2989;-2678;-327;-635;419
487031;1;6;0;827;-595;2978;-2706;-337;-766;563
487041;1;6;0;827;-526;2979;-2731;-325;-852;729
487051;1;6;0;827;-459;2982;-2750;-352;-836;911
487061;1;6;0;827;-425;2956;-2696;-425;-787;1062
487071;1;6;0;827;-438;2885;-2610;-547;-804;1156
487081;1;6;0;827;-522;2852;-2531;-647;-881;1124
487091;1;6;0;828;-630;2896;-2505;-744;-1016;1065
487101;1;6;0;828;-656;2961;-2563;-868;-1118;1067
487111;1;6;0;828;-660;3029;-2659;-985;-1160;1179
487121;1;6;0;828;-675;3134;-2716;-1070;-1155;1389
487131;1;6;0;828;-631;3200;-2716;-1139;-1079;1635
487141;1;6;0;828;-545;3213;-2710;-1211;-920;1810
487151;1;6;0;828;-525;3203;-2702;-1273;-778;1897
487161;1;6;0;828;-541;3189;-2665;-1344;-681;1970
487171;1;6;0;828;-666;3171;-2609;-1388;-714;2012
487181;1;6;0;828;-759;3162;-2551;-1431;-868;2042
487191;1;6;0;828;-791;3152;-2485;-1484;-1052;2031
487201;1;6;0;828;-863;3110;-2345;-1480;-1256;2059
487211;1;6;0;828;-873;3058;-2202;-1402;-1485;2179
487221;1;6;0;828;-824;3003;-2058;-1238;-1708;2318
487231;1;6;0;828;-710;3118;-2027;-1072;-1891;2334
487241;1;6;0;828;-670;3171;-2172;-970;-2009;2132
487251;1;6;0;828;-541;3549;-2373;-965;-2195;1722
487261;1;6;0;828;-453;3917;-2549;-1138;-2270;1218
487271;1;6;0;828;-567;4116;-2645;-1342;-2322;872
487281;1;6;0;828;-715;4208;-2628;-1537;-2382;758
487291;1;6;0;828;-712;4131;-2511;-1592;-2420;943
487301;1;6;0;828;-474;3951;-2440;-1464;-2396;1342
487311;1;6;0;828;-197;3656;-2356;-1134;-2188;1779
487321;1;6;0;828;39;3323;-2366;-739;-1941;2057
487331;1;6;0;828;198;3004;-2482;-457;-1742;2078
487341;1;6;0;828;206;2871;-2651;-279;-1603;1906
487351;1;6;0;828;274;2846;-2692;-233;-1516;1668
487361;1;6;0;828;338;3046;-2726;-241;-1332;1434
487371;1;6;0;828;309;3225;-2669;-301;-973;1254
487381;1;6;0;828;155;3287;-2585;-472;-518;1061
487391;1;6;0;828;54;3270;-2527;-653;-217;860
487401;1;6;0;828;-1;3181;-2451;-793;-137;656
487411;1;6;0;828;21;3242;-2439;-856;-137;452
487421;1;6;0;828;23;3373;-2433;-1031;-229;347
487431;1;6;0;828;56;3475;-2358;-955;-126;332
487441;1;6;0;828;60;3478;-2262;-812;36;332
487451;1;6;0;828;85;3423;-2228;-593;218;231
487461;1;6;0;828;98;3369;-2269;-445;291;152
487471;1;6;0;828;113;3287;-2285;-345;316;101
487481;1;6;0;828;146;3199;-2324;-240;376;22
487491;1;6;0;828;159;3152;-2291;-127;512;-86
487501;1;6;0;828;168;3127;-2238;-25;694;-229
487511;1;6;0;828;150;3076;-2197;79;917;-427
487521;1;6;0;828;128;3055;-2222;99;1051;-651
487531;1;6;0;828;124;3018;-2249;70;1105;-883
487541;1;6;0;828;75;3073;-2290;74;1139;-1110
487551;1;6;0;828;44;3121;-2339;93;1195;-1264
487561;1;6;0;828;-37;3191;-2338;152;1202;-1335
487571;1;6;0;828;-108;3288;-2312;189;1156;-1317
487581;1;6;0;828;-122;3381;-2266;196;1113;-1234
487591;1;6;0;829;-59;3401;-2282;205;1112;-1156
487601;1;6;0;829;2;3410;-2321;257;1128;-1107
487611;1;6;0;829;42;3354;-2334;349;1216;-1120
487621;1;6;0;829;87;3301;-2327;469;1312;-1193
487631;1;6;0;829;87;3284;-2309;592;1356;-1296
487641;1;6;0;829;27;3280;-2230;679;1308;-1407
487651;1;6;0;829;20;3368;-2175;712;1261;-1462
487661;1;6;0;829;17;3373;-2141;698;1325;-1476
487671;1;6;0;829;68;3324;-2131;711;1496;-1447
487681;1;6;0;829;137;3225;-2165;772;1721;-1449
487691;1;6;0;829;201;3099;-2211;939;1996;-1508
487701;1;6;0;829;124;3067;-2236;972;1990;-1604
487711;1;6;0;829;-19;3164;-2287;986;1893;-1735
487721;1;6;0;829;-173;3296;-2380;923;1777;-1896
487731;1;6;0;829;-353;3488;-2413;821;1529;-2057
487741;1;6;0;829;-574;3573;-2435;669;1402;-2078
487751;1;6;0;829;-724;3563;-2427;520;1315;-2029
487761;1;6;0;829;-857;3593;-2385;389;1200;-1891
487771;1;6;0;829;-984;3505;-2310;286;1016;-1615
487781;1;6;0;829;-1124;3453;-2237;261;739;-1347
487791;1;6;0;829;-1106;3532;-2236;162;390;-1242
487801;1;6;0;829;-1017;3548;-2300;-45;66;-1195
487811;1;6;0;829;-882;3618;-2415;-227;-136;-1213
487821;1;6;0;829;-651;3661;-2616;-362;-48;-1175
487831;1;6;0;829;-399;3604;-2825;-443;267;-1122
487841;1;6;0;829;-318;3430;-2872;-409;536;-1143
487851;1;6;0;829;-379;3216;-2824;-294;767;-1240
487861;1;6;0;829;-407;2999;-2767;-105;886;-1399
487871;1;6;0;829;-478;2865;-2752;138;916;-1600
487881;1;6;0;829;-615;2902;-2717;219;896;-1740
487891;1;6;0;829;-720;2930;-2743;217;806;-1741
487901;1;6;0;829;-727;2999;-2806;81;561;-1614
487911;1;6;0;829;-724;3001;-2826;-84;306;-1427
487921;1;6;0;829;-657;2954;-2798;-151;145;-1219
487931;1;6;0;829;-523;3007;-2744;-145;120;-1015
487941;1;6;0;829;-415;3006;-2722;-128;166;-878
487951;1;6;0;829;-326;2957;-2710;-47;184;-805
487961;1;6;0;829;-293;2983;-2691;96;241;-850
487971;1;6;0;829;-296;2995;-2693;206;310;-872
487981;1;6;0;829;-367;3012;-2714;271;352;-814
487991;1;6;0;829;-382;3042;-2702;292;358;-736
488001;1;6;0;829;-405;3030;-2724;317;383;-655
488011;1;6;0;829;-419;3003;-2748;303;417;-582
488021;1;6;0;829;-414;2983;-2800;318;450;-542
488031;1;6;0;829;-415;2957;-2820;323;509;-516
488041;1;6;0;829;-418;2936;-2824;309;555;-528
488051;1;6;0;829;-435;2922;-2837;289;569;-561
488061;1;6;0;829;-455;2923;-2816;255;557;-582
488071;1;6;0;829;-536;2915;-2775;200;514;-583
488081;1;6;0;829;-572;2934;-2760;144;444;-560
488092;1;6;0;830;-595;2954;-2727;71;379;-508
488102;1;6;0;830;-553;2985;-2713;-7;317;-448
488112;1;6;0;830;-515;3006;-2720;-84;281;-394
488122;1;6;0;830;-433;3049;-2773;-198;271;-347
488132;1;6;0;830;-374;3077;-2800;-239;291;-347
488142;1;6;0;830;-407;3096;-2821;-255;277;-376
488152;1;6;0;830;-420;3124;-2794;-262;262;-414
488162;1;6;0;830;-494;3110;-2790;-256;245;-443
488172;1;6;0;830;-545;3117;-2741;-256;199;-437
488182;1;6;0;830;-613;3113;-2694;-257;137;-414
488192;1;6;0;830;-654;3085;-2674;-250;49;-348
488202;1;6;0;830;-669;3075;-2653;-233;-52;-249
488212;1;6;0;830;-674;3043;-2636;-260;-194;-90
488222;1;6;0;830;-668;3011;-2620;-285;-329;85
488232;1;6;0;830;-640;3023;-2586;-319;-451;246
488242;1;6;0;830;-592;3006;-2568;-352;-542;372
488252;1;6;0;830;-539;3033;-2570;-405;-597;426
488262;1;6;0;830;-502;3071;-2604;-470;-627;455
488272;1;6;0;830;-495;3097;-2616;-535;-625;515
488282;1;6;0;830;-505;3059;-2622;-590;-610;611
488292;1;6;0;830;-536;3059;-2610;-597;-621;726
488302;1;6;0;830;-585;3035;-2581;-593;-637;840
488312;1;6;0;830;-620;3009;-2562;-576;-675;932
488322;1;6;0;830;-643;3010;-2545;-561;-718;1045
488332;1;6;0;830;-667;2973;-2535;-566;-762;1138
488342;1;6;0;830;-634;2982;-2559;-593;-845;1191
488352;1;6;0;830;-657;3010;-2614;-659;-916;1232
488362;1;6;0;830;-722;3037;-2640;-751;-1039;1233
488372;1;6;0;830;-772;3179;-2679;-853;-1201;1192
488382;1;6;0;830;-821;3297;-2688;-983;-1331;1167
488392;1;6;0;830;-881;3334;-2667;-1109;-1437;1210
488402;1;6;0;830;-948;3364;-2576;-1180;-1538;1330
488412;1;6;0;830;-989;3375;-2447;-1214;-1605;1482
488422;1;6;0;830;-1002;3313;-2337;-1208;-1648;1636
488432;1;6;0;830;-977;3284;-2264;-1155;-1672;1806
488442;1;6;0;830;-881;3246;-2200;-1049;-1719;1902
488452;1;6;0;830;-749;3245;-2188;-934;-1816;1907
488462;1;6;0;830;-671;3340;-2223;-896;-1995;1802
488472;1;6;0;830;-540;3442;-2293;-926;-2245;1607
488482;1;6;0;830;-394;3537;-2353;-1011;-2461;1373
488492;1;6;0;830;-293;3574;-2383;-1080;-2538;1263
488502;1;6;0;830;-238;3493;-2359;-1076;-2489;1313
488512;1;6;0;830;-124;3343;-2360;-980;-2373;1433
488522;1;6;0;830;21;3212;-2351;-815;-2174;1555
488532;1;6;0;830;160;3073;-2385;-560;-1942;1544
488542;1;6;0;830;258;2984;-2458;-370;-1737;1450
488552;1;6;0;830;297;2996;-2573;-239;-1590;1204
488562;1;6;0;830;245;3023;-2657;-194;-1486;962
488572;1;6;0;830;144;3138;-2682;-216;-1366;709
488582;1;6;0;830;49;3266;-2662;-289;-1267;546
488591;1;6;0;831;-28;3360;-2601;-354;-1150;458
488601;1;6;0;831;-35;3431;-2548;-376;-1035;436
488611;1;6;0;831;-16;3493;-2488;-378;-900;401
488621;1;6;0;831;-16;3496;-2429;-344;-744;369
488631;1;6;0;831;-8;3510;-2450;-279;-618;396
488641;1;6;0;831;-3;3544;-2446;-184;-469;437
488651;1;6;0;831;30;3496;-2407;-122;-338;474
488661;1;6;0;831;11;3440;-2343;-82;-196;477
488671;1;6;0;831;22;3326;-2299;-83;-71;436
488681;1;6;0;831;53;3249;-2262;-115;23;382
488691;1;6;0;831;92;3209;-2249;-143;84;323
488701;1;6;0;831;120;3197;-2248;-166;156;208
488711;1;6;0;831;120;3196;-2239;-150;277;63
488721;1;6;0;831;55;3156;-2250;-130;423;-117
488731;1;6;0;831;1;3161;-2257;-98;533;-320
488741;1;6;0;831;-51;3203;-2239;-52;572;-484
488751;1;6;0;831;-113;3233;-2231;-14;567;-589
488761;1;6;0;831;-117;3288;-2228;21;544;-607
488771;1;6;0;831;-120;3319;-2236;81;498;-577
488781;1;6;0;831;-149;3347;-2202;154;428;-555
488791;1;6;0;831;-149;3395;-2207;229;353;-544
488801;1;6;0;831;-157;3403;-2204;274;305;-584
488811;1;6;0;831;-138;3367;-2223;287;294;-655
488821;1;6;0;831;-115;3279;-2257;306;302;-731
488831;1;6;0;831;-177;3234;-2247;351;296;-816
488841;1;6;0;831;-267;3241;-2233;392;214;-910
488851;1;6;0;831;-331;3238;-2213;413;137;-924
488861;1;6;0;831;-406;3265;-2181;423;66;-964
488871;1;6;0;831;-345;3322;-2188;407;-34;-948
488881;1;6;0;831;-197;3326;-2265;382;-26;-964
488891;1;6;0;831;-42;3179;-2345;418;182;-1032
488901;1;6;0;831;-16;3027;-2377;530;465;-1251
488911;1;6;0;831;5;3138;-2494;641;615;-1556
488921;1;6;0;831;-190;3267;-2594;600;587;-1879
488931;1;6;0;831;-491;3402;-2602;533;359;-2150
488941;1;6;0;831;-747;3599;-2560;449;110;-2140
488951;1;6;0;831;-935;3741;-2544;337;-29;-1975
488961;1;6;0;831;-1093;3780;-2498;205;-133;-1768
488971;1;6;0;831;-1282;3822;-2510;97;-394;-1515
488981;1;6;0;831;-1305;3914;-2540;104;-662;-1277
488991;1;6;0;831;-1085;3958;-2627;60;-713;-1107
489001;1;6;0;831;-862;3802;-2680;80;-407;-952
489011;1;6;0;831;-700;3568;-2645;186;-11;-766
489021;1;6;0;831;-457;3250;-2598;364;435;-613
489031;1;6;0;831;-150;2972;-2601;585;949;-652
489041;1;6;0;831;60;2717;-2598;763;1511;-928
489051;1;6;0;831;57;2573;-2611;796;2035;-1430
489061;1;6;0;831;-207;2427;-2604;679;2357;-2051
489071;1;6;0;831;-604;2366;-2579;493;2362;-2647
489081;1;6;0;831;-851;2469;-2601;359;2150;-3095
489091;1;6;0;832;-1119;2647;-2597;123;1759;-3305
489101;1;6;0;832;-1222;2809;-2612;-231;1198;-3311
489111;1;6;0;832;-1268;3059;-2561;-508;771;-3079
489121;1;6;0;832;-1196;3273;-2518;-628;497;-2594
489131;1;6;0;832;-1120;3383;-2470;-592;293;-1997
489141;1;6;0;832;-987;3466;-2445;-432;146;-1460
489151;1;6;0;832;-829;3454;-2426;-300;-57;-970
489161;1;6;0;832;-620;3476;-2463;-82;3;-581
489171;1;6;0;832;-419;3433;-2492;81;120;-290
489181;1;6;0;832;-300;3335;-2516;209;338;-237
489191;1;6;0;832;-325;3201;-2618;419;662;-298
489201;1;6;0;832;-414;3101;-2658;464;752;-363
489211;1;6;0;832;-561;2992;-2657;529;753;-480
489221;1;6;0;832;-595;3000;-2683;482;707;-537
489231;1;6;0;832;-654;2961;-2775;357;696;-493
489241;1;6;0;832;-694;2918;-2818;227;685;-332
489251;1;6;0;832;-709;2877;-2832;148;615;-147
489261;1;6;0;832;-705;2841;-2787;152;526;-46
489271;1;6;0;832;-691;2831;-2705;149;450;-27
489281;1;6;0;832;-713;2839;-2682;-51;252;-8
489291;1;6;0;832;-750;2851;-2674;-152;158;-29
489301;1;6;0;832;-755;2922;-2704;-265;81;-8
489311;1;6;0;832;-706;3012;-2702;-374;-19;47
489321;1;6;0;832;-746;3009;-2646;-342;-3;24
489331;1;6;0;832;-738;3065;-2658;-372;17;35
489341;1;6;0;832;-750;3062;-2640;-297;123;67
489351;1;6;0;832;-753;3025;-2625;-265;203;139
489361;1;6;0;832;-749;2956;-2588;-301;139;197
489371;1;6;0;832;-737;2945;-2580;-318;16;199
489381;1;6;0;832;-704;2947;-2624;-349;-128;169
489391;1;6;0;832;-728;2974;-2626;-307;-230;130
489401;1;6;0;832;-747;3042;-2657;-306;-293;145
489411;1;6;0;832;-771;3058;-2649;-335;-394;216
489421;1;6;0;832;-798;3087;-2621;-333;-458;290
489431;1;6;0;832;-796;3113;-2610;-390;-521;417
489441;1;6;0;832;-776;3144;-2612;-418;-560;605
489451;1;6;0;832;-756;3110;-2605;-480;-578;817
489461;1;6;0;832;-727;3084;-2604;-542;-602;986
489471;1;6;0;832;-692;3056;-2634;-600;-628;1119
489481;1;6;0;832;-679;3027;-2658;-668;-660;1217
489491;1;6;0;832;-712;2990;-2660;-732;-682;1286
489501;1;6;0;832;-714;2961;-2692;-783;-719;1327
489511;1;6;0;832;-693;3014;-2737;-838;-789;1409
489521;1;6;0;832;-745;3037;-2716;-876;-879;1534
489531;1;6;0;832;-767;3151;-2735;-891;-1000;1733
489541;1;6;0;832;-813;3199;-2675;-917;-1078;1993
489551;1;6;0;832;-840;3220;-2625;-981;-1190;2248
489561;1;6;0;832;-850;3259;-2599;-1061;-1322;2454
489571;1;6;0;832;-812;3291;-2564;-1119;-1377;2585
489581;1;6;0;832;-698;3213;-2484;-1145;-1350;2578
489591;1;6;0;833;-630;3177;-2357;-1128;-1277;2411
489601;1;6;0;833;-606;3133;-2228;-1074;-1264;2077
489611;1;6;0;833;-562;3169;-2159;-962;-1321;1670
489621;1;6;0;833;-487;3277;-2207;-805;-1342;1198
489631;1;6;0;833;-402;3391;-2312;-674;-1257;766
489641;1;6;0;833;-418;3487;-2382;-585;-1236;501
489651;1;6;0;833;-493;3572;-2364;-548;-1221;430
489661;1;6;0;833;-562;3601;-2342;-514;-1233;586
489671;1;6;0;833;-569;3628;-2320;-504;-1208;934
489681;1;6;0;833;-533;3544;-2322;-468;-1059;1307
489691;1;6;0;833;-351;3375;-2381;-391;-950;1650
489701;1;6;0;833;-237;3218;-2367;-348;-926;1856
489711;1;6;0;833;-90;3129;-2365;-321;-1008;1843
489721;1;6;0;833;31;3135;-2342;-312;-1146;1640
489731;1;6;0;833;103;3214;-2387;-339;-1230;1340
489741;1;6;0;833;121;3349;-2431;-392;-1201;1068
489751;1;6;0;833;144;3482;-2433;-445;-1052;888
489761;1;6;0;833;122;3533;-2400;-474;-850;736
489771;1;6;0;833;59;3548;-2353;-468;-663;605
489781;1;6;0;833;-35;3507;-2294;-425;-501;482
489791;1;6;0;833;-71;3426;-2276;-369;-384;375
489801;1;6;0;833;-136;3344;-2239;-280;-275;303
489811;1;6;0;833;-141;3279;-2302;-202;-169;269
489821;1;6;0;833;-141;3221;-2301;-134;-87;265
489831;1;6;0;833;-114;3148;-2319;-111;16;280
489841;1;6;0;833;-94;3087;-2305;-111;124;240
489851;1;6;0;833;-53;3076;-2295;-117;211;156
489861;1;6;0;833;-15;3045;-2281;-121;293;14
489871;1;6;0;833;0;3014;-2264;-128;375;-182
489881;1;6;0;833;-16;3029;-2308;-161;435;-384
489891;1;6;0;833;-58;3073;-2326;-179;428;-575
489901;1;6;0;833;-104;3185;-2330;-181;395;-697
489911;1;6;0;833;-128;3279;-2316;-193;397;-776
489921;1;6;0;833;-194;3341;-2279;-181;427;-794
489931;1;6;0;833;-199;3388;-2267;-163;437;-774
489941;1;6;0;833;-146;3374;-2227;-123;459;-763
489951;1;6;0;833;-105;3403;-2213;-25;451;-777
489961;1;6;0;833;-141;3419;-2195;73;430;-794
489971;1;6;0;833;-163;3449;-2190;156;391;-801
489981;1;6;0;833;-195;3507;-2218;223;322;-783
489991;1;6;0;833;-246;3561;-2242;274;272;-767
490001;1;6;0;833;-274;3596;-2285;236;204;-698
490011;1;6;0;833;-248;3572;-2322;186;173;-605
490021;1;6;0;833;-224;3507;-2290;251;247;-495
490031;1;6;0;833;-187;3435;-2272;281;326;-430
490041;1;6;0;833;-121;3401;-2271;344;351;-468
490051;1;6;0;833;-40;3338;-2311;401;403;-584
490061;1;6;0;833;21;3252;-2369;450;508;-749
490071;1;6;0;833;-3;3192;-2397;484;667;-894
490081;1;6;0;833;-7;3080;-2405;530;885;-1025
490091;1;6;0;834;-105;2999;-2367;631;1042;-1276
490101;1;6;0;834;-189;3082;-2414;664;1072;-1484
490111;1;6;0;834;-232;3106;-2472;664;1075;-1710
490121;1;6;0;834;-336;3104;-2563;622;1045;-1885
490131;1;6;0;834;-480;3141;-2572;633;983;-2026
490141;1;6;0;834;-682;3240;-2523;622;871;-2154
490151;1;6;0;834;-835;3357;-2438;566;699;-2253
490161;1;6;0;834;-991;3512;-2388;430;427;-2326
490171;1;6;0;834;-1174;3727;-2406;239;34;-2369
490181;1;6;0;834;-1299;3924;-2423;63;-372;-2332
490191;1;6;0;834;-1193;3951;-2396;-44;-411;-2150
490201;1;6;0;834;-982;3647;-2380;31;-40;-1811
490211;1;6;0;834;-784;3334;-2378;302;475;-1440
490221;1;6;0;834;-505;3079;-2434;619;983;-1196
490231;1;6;0;834;-265;2902;-2512;925;1334;-1218
490241;1;6;0;834;-189;2842;-2562;976;1619;-1515
490251;1;6;0;834;-262;2711;-2658;818;1764;-1908
490261;1;6;0;834;-436;2616;-2740;506;1708;-2230
490271;1;6;0;834;-712;2567;-2752;138;1372;-2413
490281;1;6;0;834;-921;2674;-2699;-151;887;-2399
490291;1;6;0;834;-1014;2877;-2691;-361;489;-2179
490301;1;6;0;834;-1034;3027;-2698;-513;271;-1813
490311;1;6;0;834;-988;3181;-2707;-619;49;-1454
490321;1;6;0;834;-902;3305;-2667;-620;-117;-1159
490331;1;6;0;834;-792;3414;-2609;-547;-199;-875
490341;1;6;0;834;-719;3486;-2611;-419;-178;-656
490351;1;6;0;834;-618;3466;-2604;-250;-46;-443
490361;1;6;0;834;-485;3381;-2646;-118;94;-300
490371;1;6;0;834;-457;3288;-2638;-27;169;-285
490381;1;6;0;834;-484;3166;-2633;68;229;-286
490391;1;6;0;834;-520;3061;-2617;129;268;-241
490401;1;6;0;834;-555;2969;-2593;201;265;-226
490411;1;6;0;834;-598;2894;-2660;218;199;-216
490421;1;6;0;834;-651;2867;-2684;169;89;-195
490431;1;6;0;834;-691;2853;-2708;78;-75;-168
490441;1;6;0;834;-742;2891;-2703;3;-241;-137
490451;1;6;0;834;-787;2920;-2645;-51;-387;-94
490461;1;6;0;834;-808;2962;-2632;-90;-509;-43
490471;1;6;0;834;-778;3029;-2634;-166;-583;40
490481;1;6;0;834;-739;3075;-2607;-333;-685;194
490491;1;6;0;834;-714;3084;-2598;-370;-718;302
490501;1;6;0;834;-702;3080;-2565;-390;-753;391
490511;1;6;0;834;-735;3080;-2567;-404;-769;443
490521;1;6;0;834;-790;3079;-2552;-443;-820;482
490531;1;6;0;834;-843;3087;-2532;-467;-912;507
490541;1;6;0;834;-873;3099;-2525;-474;-1021;547
490551;1;6;0;834;-916;3071;-2504;-466;-1121;619
490561;1;6;0;834;-903;3077;-2504;-445;-1217;719
490571;1;6;0;834;-862;3046;-2530;-456;-1249;846
490581;1;6;0;834;-823;3012;-2593;-479;-1276;944
490591;1;6;0;835;-723;3012;-2634;-524;-1281;988
490601;1;6;0;835;-684;3012;-2645;-551;-1268;982
490611;1;6;0;835;-684;3001;-2665;-567;-1217;965
490621;1;6;0;835;-669;3021;-2654;-574;-1133;953
490631;1;6;0;835;-713;3027;-2648;-572;-1057;992
490641;1;6;0;835;-773;3020;-2615;-574;-1033;1073
490651;1;6;0;835;-826;3016;-2602;-587;-1064;1206
490661;1;6;0;835;-847;3044;-2577;-606;-1181;1354
490671;1;6;0;835;-842;3054;-2553;-642;-1318;1522
490681;1;6;0;835;-890;3091;-2536;-684;-1481;1723
490691;1;6;0;835;-983;3143;-2458;-702;-1692;1934
490701;1;6;0;835;-1043;3228;-2435;-700;-1966;2088
490711;1;6;0;835;-1017;3293;-2390;-746;-2140;2153
490721;1;6;0;835;-929;3324;-2354;-811;-2114;2090
490731;1;6;0;835;-839;3303;-2279;-877;-1971;1974
490741;1;6;0;835;-707;3271;-2192;-917;-1790;1858
490751;1;6;0;835;-776;3080;-2119;-868;-1763;1794
490761;1;6;0;835;-808;3099;-2079;-779;-1838;1699
490771;1;6;0;835;-867;3089;-2006;-700;-1902;1531
490781;1;6;0;835;-863;3187;-2092;-678;-1950;1289
490791;1;6;0;835;-828;3311;-2213;-714;-1996;1019
490801;1;6;0;835;-783;3456;-2348;-803;-2012;837
490811;1;6;0;835;-685;3558;-2443;-918;-1946;819
490821;1;6;0;835;-618;3583;-2460;-998;-1887;885
490831;1;6;0;835;-484;3654;-2427;-1061;-1826;956
490841;1;6;0;835;-303;3619;-2341;-1039;-1694;996
490851;1;6;0;835;-223;3513;-2303;-977;-1525;970
490861;1;6;0;835;-170;3368;-2300;-850;-1388;881
490871;1;6;0;835;-196;3278;-2314;-672;-1280;759
490881;1;6;0;835;-260;3300;-2363;-512;-1187;639
490891;1;6;0;835;-304;3406;-2431;-408;-1086;582
490901;1;6;0;835;-366;3508;-2389;-412;-952;588
490911;1;6;0;835;-386;3542;-2363;-463;-806;606
490921;1;6;0;835;-321;3528;-2306;-515;-669;594
490931;1;6;0;835;-238;3445;-2237;-529;-558;545
490941;1;6;0;835;-188;3409;-2168;-506;-448;495
490951;1;6;0;835;-160;3363;-2136;-441;-415;407
490961;1;6;0;835;-161;3347;-2123;-354;-362;313
490971;1;6;0;835;-202;3360;-2122;-291;-303;242
490981;1;6;0;835;-252;3344;-2114;-252;-287;199
490991;1;6;0;835;-277;3311;-2133;-227;-259;162
491001;1;6;0;835;-257;3263;-2140;-183;-213;135
491011;1;6;0;835;-262;3215;-2136;-138;-144;60
491021;1;6;0;835;-261;3206;-2156;-86;-108;-40
491031;1;6;0;835;-286;3234;-2185;-76;-65;-179
491041;1;6;0;835;-311;3246;-2208;-63;-28;-329
491051;1;6;0;835;-348;3292;-2238;-50;33;-465
491061;1;6;0;835;-364;3324;-2263;-33;81;-598
491071;1;6;0;835;-381;3389;-2284;-19;111;-701
491081;1;6;0;835;-438;3428;-2272;-1;137;-738
491091;1;6;0;836;-439;3448;-2255;40;156;-759
491101;1;6;0;836;-415;3489;-2258;91;178;-790
491111;1;6;0;836;-436;3496;-2229;136;224;-832
491121;1;6;0;836;-454;3486;-2227;189;244;-879
491131;1;6;0;836;-466;3493;-2261;209;254;-898
491141;1;6;0;836;-516;3493;-2268;186;252;-869
491151;1;6;0;836;-495;3510;-2251;153;193;-836
491161;1;6;0;836;-509;3516;-2183;167;167;-823
491171;1;6;0;836;-480;3537;-2133;159;142;-875
491181;1;6;0;836;-474;3523;-2089;132;118;-958
491191;1;6;0;836;-477;3461;-2110;98;98;-1004
491201;1;6;0;836;-461;3464;-2158;53;105;-998
491211;1;6;0;836;-440;3431;-2135;66;163;-951
491221;1;6;0;836;-404;3403;-2125;76;289;-912
491231;1;6;0;836;-356;3328;-2113;110;430;-898
491241;1;6;0;836;-287;3254;-2150;187;581;-885
491251;1;6;0;836;-202;3178;-2212;266;810;-903
491261;1;6;0;836;-179;3117;-2209;346;1025;-1026
491271;1;6;0;836;-176;3124;-2241;394;1183;-1220
491281;1;6;0;836;-254;3123;-2250;399;1260;-1490
491291;1;6;0;836;-434;3145;-2238;403;1200;-1805
491301;1;6;0;836;-759;3205;-2166;413;969;-2038
491311;1;6;0;836;-1008;3319;-2037;410;662;-2146
491321;1;6;0;836;-1239;3393;-1951;363;390;-2200
491331;1;6;0;836;-1434;3488;-1970;291;85;-2174
491341;1;6;0;836;-1561;3624;-2003;141;-279;-2104
491351;1;6;0;836;-1582;3752;-2125;-79;-629;-2017
491361;1;6;0;836;-1295;3744;-2280;-320;-658;-1713
491371;1;6;0;836;-1094;3531;-2392;-218;-263;-1411
491381;1;6;0;836;-861;3311;-2478;-46;206;-1142
491391;1;6;0;836;-619;3101;-2539;138;598;-1051
491401;1;6;0;836;-431;2881;-2577;314;941;-1215
491411;1;6;0;836;-424;2807;-2577;382;1051;-1537
491421;1;6;0;836;-649;2707;-2517;355;1016;-1856
491431;1;6;0;836;-994;2629;-2457;308;779;-2102
491441;1;6;0;836;-1221;2767;-2471;112;535;-2097
491451;1;6;0;836;-1281;2837;-2519;-148;333;-1916
491461;1;6;0;836;-1223;2987;-2583;-292;249;-1733
491471;1;6;0;836;-1179;3117;-2612;-380;240;-1552
491481;1;6;0;836;-1093;3244;-2610;-421;231;-1286
491491;1;6;0;836;-1043;3298;-2577;-478;190;-1060
491501;1;6;0;836;-1028;3296;-2531;-408;169;-924
491511;1;6;0;836;-1003;3264;-2460;-380;87;-833
491521;1;6;0;836;-950;3162;-2494;-331;92;-783
491531;1;6;0;836;-919;3044;-2462;-243;148;-757
491541;1;6;0;836;-892;2983;-2478;-138;128;-806
491551;1;6;0;836;-926;3015;-2515;-68;130;-838
491561;1;6;0;836;-984;3067;-2550;-18;113;-829
491571;1;6;0;836;-1039;3132;-2598;-32;87;-832
491581;1;6;0;836;-1107;3179;-2631;-84;42;-839
491591;1;6;0;837;-1150;3185;-2672;-187;10;-778
491601;1;6;0;837;-1133;3170;-2724;-258;53;-668
491611;1;6;0;837;-1146;3099;-2692;-329;126;-538
491621;1;6;0;837;-1104;3064;-2660;-364;163;-450
491631;1;6;0;837;-1122;3051;-2593;-374;142;-421
491641;1;6;0;837;-1094;3053;-2552;-382;39;-441
491651;1;6;0;837;-1095;3119;-2498;-411;-79;-459
491661;1;6;0;837;-1154;3171;-2500;-438;-175;-404
491671;1;6;0;837;-1174;3184;-2459;-461;-255;-278
491681;1;6;0;837;-1171;3188;-2445;-480;-307;-121
491691;1;6;0;837;-1162;3171;-2422;-480;-351;37
491701;1;6;0;837;-1116;3119;-2375;-495;-403;187
491711;1;6;0;837;-1067;3068;-2382;-486;-478;273
491721;1;6;0;837;-1046;3046;-2400;-471;-542;308
491731;1;6;0;837;-1020;2980;-2465;-461;-549;334
491741;1;6;0;837;-1021;2963;-2452;-451;-574;329
491751;1;6;0;837;-1050;3006;-2433;-444;-649;308
491761;1;6;0;837;-1098;3047;-2438;-452;-737;310
491771;1;6;0;837;-1156;3058;-2433;-497;-799;350
491781;1;6;0;837;-1202;3076;-2453;-557;-859;461
491791;1;6;0;837;-1218;3062;-2429;-620;-899;615
491801;1;6;0;837;-1184;3015;-2428;-631;-932;771
491811;1;6;0;837;-1175;2964;-2363;-592;-922;878
491821;1;6;0;837;-1140;2939;-2364;-527;-900;951
491831;1;6;0;837;-1108;2910;-2358;-436;-893;1006
491841;1;6;0;837;-1112;2910;-2364;-394;-908;1042
491851;1;6;0;837;-1130;2962;-2410;-384;-958;1115
491861;1;6;0;837;-1213;3026;-2452;-414;-1057;1254
491871;1;6;0;837;-1315;3121;-2356;-511;-1197;1504
491881;1;6;0;837;-1452;3178;-2284;-632;-1385;1770
491891;1;6;0;837;-1518;3265;-2227;-763;-1589;1956
491901;1;6;0;837;-1488;3334;-2252;-901;-1785;2003
491911;1;6;0;837;-1418;3327;-2268;-967;-1818;1893
491921;1;6;0;837;-1227;3360;-2276;-966;-1704;1675
491931;1;6;0;837;-1061;3329;-2248;-899;-1462;1389
491941;1;6;0;837;-926;3297;-2210;-768;-1258;1126
491951;1;6;0;837;-850;3311;-2135;-615;-1121;884
491961;1;6;0;837;-782;3359;-2126;-526;-985;703
491971;1;6;0;837;-766;3374;-2121;-470;-888;626
491981;1;6;0;837;-818;3378;-2102;-478;-861;635
491991;1;6;0;837;-817;3382;-2106;-520;-881;640
492001;1;6;0;837;-796;3317;-2121;-561;-889;650
492011;1;6;0;837;-775;3212;-2082;-571;-912;606
492021;1;6;0;837;-717;3190;-2058;-569;-984;500
492031;1;6;0;837;-676;3217;-2092;-525;-1032;400
492041;1;6;0;837;-645;3330;-2098;-465;-1042;335
492051;1;6;0;837;-661;3460;-2145;-440;-1006;306
492061;1;6;0;837;-623;3623;-2168;-459;-922;296
492071;1;6;0;837;-598;3761;-2156;-533;-814;259
492081;1;6;0;837;-606;3807;-2119;-592;-730;195
492092;1;6;0;838;-576;3849;-2082;-605;-702;131
492102;1;6;0;838;-565;3785;-2068;-559;-637;131
492112;1;6;0;838;-575;3686;-2018;-441;-539;196
492122;1;6;0;838;-583;3607;-2017;-336;-463;251
492132;1;6;0;838;-589;3515;-2050;-231;-376;279
492142;1;6;0;838;-579;3406;-2057;-98;-297;238
492152;1;6;0;838;-599;3352;-2064;-51;-248;160
492162;1;6;0;838;-596;3278;-2072;-2;-181;47
492172;1;6;0;838;-582;3235;-2080;-3;-104;-110
492182;1;6;0;838;-580;3231;-2091;-35;-34;-254
492192;1;6;0;838;-577;3236;-2129;-82;46;-410
492202;1;6;0;838;-614;3240;-2115;-133;147;-546
492212;1;6;0;838;-630;3280;-2098;-175;245;-640
492222;1;6;0;838;-648;3302;-2061;-202;348;-676
492232;1;6;0;838;-666;3330;-2006;-193;385;-702
492242;1;6;0;838;-680;3353;-1965;-175;375;-737
492252;1;6;0;838;-663;3374;-1983;-162;362;-773
492262;1;6;0;838;-687;3396;-1994;-119;362;-788
492272;1;6;0;838;-706;3414;-2008;-56;378;-783
492282;1;6;0;838;-726;3428;-2021;-5;413;-763
492292;1;6;0;838;-739;3434;-1995;20;431;-740
492302;1;6;0;838;-752;3480;-2009;36;395;-694
492312;1;6;0;838;-762;3487;-2016;27;367;-629
492322;1;6;0;838;-744;3489;-2006;44;380;-552
492332;1;6;0;838;-751;3427;-1966;83;426;-493
492342;1;6;0;838;-716;3350;-1903;122;442;-508
492352;1;6;0;838;-665;3326;-1897;151;445;-583
492362;1;6;0;838;-607;3355;-2005;162;470;-629
492372;1;6;0;838;-547;3349;-2136;148;585;-610
492382;1;6;0;838;-483;3312;-2206;198;835;-577
492392;1;6;0;838;-520;3235;-2196;306;1137;-640
492402;1;6;0;838;-608;3200;-2097;417;1356;-778
492412;1;6;0;838;-791;3215;-2018;459;1382;-1021
492422;1;6;0;838;-1018;3302;-2027;413;1175;-1351
492432;1;6;0;838;-1259;3477;-2040;277;791;-1655
492442;1;6;0;838;-1497;3616;-2030;115;450;-1819
492452;1;6;0;838;-1630;3623;-2002;-72;159;-1810
492462;1;6;0;838;-1637;3569;-1987;-41;46;-1775
492472;1;6;0;838;-1582;3546;-2063;-4;-27;-1697
492482;1;6;0;838;-1540;3565;-2176;92;-52;-1585
492492;1;6;0;838;-1339;3603;-2353;131;-329;-1390
492502;1;6;0;838;-1244;3524;-2488;196;231;-1456
492512;1;6;0;838;-1164;3385;-2626;217;609;-1484
492522;1;6;0;838;-1023;3225;-2730;229;996;-1540
492532;1;6;0;838;-927;2985;-2670;220;1342;-1663
492542;1;6;0;838;-832;2745;-2549;257;1664;-1894
492552;1;6;0;838;-757;2626;-2465;344;1930;-2064
492562;1;6;0;838;-998;2505;-2387;309;2082;-2169
492572;1;6;0;838;-1203;2533;-2375;281;1875;-2193
492582;1;6;0;838;-1300;2654;-2398;182;1556;-2211
492591;1;6;0;839;-1350;2850;-2432;55;1268;-2204
492601;1;6;0;839;-1448;3060;-2434;-119;1016;-2113
492611;1;6;0;839;-1557;3220;-2375;-363;675;-1916
492621;1;6;0;839;-1605;3338;-2305;-422;427;-1736
492631;1;6;0;839;-1566;3409;-2302;-498;237;-1489
492641;1;6;0;839;-1452;3366;-2313;-466;180;-1209
492651;1;6;0;839;-1251;3326;-2372;-391;87;-862
492661;1;6;0;839;-1102;3182;-2390;-281;427;-746
492671;1;6;0;839;-997;3114;-2438;-158;537;-738
492681;1;6;0;839;-985;3040;-2435;-73;583;-788
492691;1;6;0;839;-1053;2970;-2393;-2;559;-895
492701;1;6;0;839;-1168;2949;-2405;21;501;-968
492711;1;6;0;839;-1282;2929;-2437;-13;434;-990
492721;1;6;0;839;-1388;2910;-2408;-156;279;-943
492731;1;6;0;839;-1471;2906;-2404;-244;131;-871
492741;1;6;0;839;-1447;2934;-2392;-310;55;-753
492751;1;6;0;839;-1357;2965;-2405;-344;34;-599
492761;1;6;0;839;-1233;2949;-2407;-359;83;-439
492771;1;6;0;839;-1134;2963;-2421;-359;119;-340
492781;1;6;0;839;-1085;2967;-2417;-376;126;-285
492791;1;6;0;839;-1103;2994;-2396;-382;98;-276
492801;1;6;0;839;-1183;3030;-2381;-404;27;-289
492811;1;6;0;839;-1323;3094;-2348;-413;-107;-253
492821;1;6;0;839;-1461;3161;-2332;-450;-294;-134
492831;1;6;0;839;-1528;3216;-2330;-495;-495;36
492841;1;6;0;839;-1531;3243;-2283;-534;-696;251
492851;1;6;0;839;-1480;3238;-2269;-559;-813;439
492861;1;6;0;839;-1371;3134;-2265;-527;-888;621
492871;1;6;0;839;-1285;3034;-2284;-461;-899;746
492881;1;6;0;839;-1228;2947;-2307;-397;-871;779
492891;1;6;0;839;-1222;2894;-2342;-336;-851;754
492901;1;6;0;839;-1281;2892;-2310;-353;-879;730
492911;1;6;0;839;-1357;2937;-2305;-430;-988;710
492921;1;6;0;839;-1455;3003;-2252;-549;-1129;752
492931;1;6;0;839;-1443;3050;-2272;-679;-1230;869
492941;1;6;0;839;-1456;3059;-2288;-765;-1251;1033
492951;1;6;0;839;-1449;3086;-2330;-811;-1270;1199
492961;1;6;0;839;-1426;3146;-2339;-845;-1291;1341
492971;1;6;0;839;-1415;3185;-2330;-870;-1345;1503
492981;1;6;0;839;-1478;3207;-2260;-858;-1509;1737
492991;1;6;0;839;-1531;3255;-2136;-864;-1754;2036
493001;1;6;0;839;-1624;3284;-1979;-903;-2013;2320
493011;1;6;0;839;-1730;3340;-1870;-980;-2323;2503
493021;1;6;0;839;-1760;3371;-1882;-1085;-2624;2530
493031;1;6;0;839;-1763;3408;-1972;-1210;-2793;2366
493041;1;6;0;839;-1646;3500;-2113;-1312;-2800;2106
493051;1;6;0;839;-1479;3537;-2215;-1372;-2612;1950
493061;1;6;0;839;-1329;3492;-2171;-1380;-2362;1876
493071;1;6;0;839;-1224;3414;-2008;-1297;-2137;1817
493081;1;6;0;839;-1095;3366;-1881;-1198;-2019;1722
493091;1;6;0;840;-1061;3368;-1854;-1091;-1974;1636
493101;1;6;0;840;-1014;3311;-1824;-1028;-1943;1606
493111;1;6;0;840;-938;3204;-1872;-995;-1899;1568
493121;1;6;0;840;-788;3092;-1858;-967;-1758;1518
493131;1;6;0;840;-667;2947;-1834;-882;-1584;1410
493141;1;6;0;840;-630;2862;-1870;-724;-1430;1297
493151;1;6;0;840;-586;2994;-1914;-579;-1335;1090
493161;1;6;0;840;-644;3200;-1958;-537;-1240;853
493171;1;6;0;840;-765;3399;-1977;-614;-1162;656
493181;1;6;0;840;-882;3559;-1930;-746;-1100;489
493191;1;6;0;840;-928;3742;-1809;-911;-1011;367
493201;1;6;0;840;-936;3870;-1700;-990;-910;302
493211;1;6;0;840;-875;3920;-1698;-987;-761;298
493221;1;6;0;840;-795;3913;-1741;-893;-639;330
493231;1;6;0;840;-722;3840;-1821;-729;-465;353
493241;1;6;0;840;-616;3763;-1890;-471;-268;311
493251;1;6;0;840;-588;3643;-1938;-185;-74;236
493261;1;6;0;840;-595;3543;-1960;60;79;196
493271;1;6;0;840;-619;3472;-1953;230;221;172
493281;1;6;0;840;-640;3370;-1955;328;316;103
493291;1;6;0;840;-688;3290;-1932;356;387;-34
493301;1;6;0;840;-727;3241;-1915;273;437;-226
493311;1;6;0;840;-782;3201;-1888;203;501;-390
493321;1;6;0;840;-834;3183;-1870;158;577;-576
493331;1;6;0;840;-810;3208;-1884;140;693;-739
493341;1;6;0;840;-811;3244;-1918;145;848;-846
493351;1;6;0;840;-797;3300;-1945;77;877;-908
493361;1;6;0;840;-813;3353;-1867;109;909;-957
493371;1;6;0;840;-893;3442;-1757;174;891;-1041
493381;1;6;0;840;-970;3536;-1627;213;784;-1145
493391;1;6;0;840;-1058;3644;-1561;201;575;-1228
493401;1;6;0;840;-1132;3744;-1589;160;341;-1210
493411;1;6;0;840;-1150;3845;-1611;113;164;-1070
493421;1;6;0;840;-1089;3826;-1641;83;92;-889
493431;1;6;0;840;-999;3776;-1658;89;75;-763
493441;1;6;0;840;-890;3707;-1712;189;80;-749
493451;1;6;0;840;-810;3655;-1776;328;130;-836
493461;1;6;0;840;-856;3573;-1840;416;97;-952
493471;1;6;0;840;-866;3551;-1834;404;35;-1032
493481;1;6;0;840;-919;3501;-1822;386;46;-1088
493491;1;6;0;840;-945;3425;-1820;321;70;-1122
493501;1;6;0;840;-939;3403;-1811;274;125;-1124
493511;1;6;0;840;-934;3421;-1864;229;194;-1057
493521;1;6;0;840;-885;3515;-1957;193;279;-936
493531;1;6;0;840;-803;3572;-2032;167;424;-793
493541;1;6;0;840;-736;3586;-2117;182;617;-704
493551;1;6;0;840;-627;3562;-2199;232;948;-657
493561;1;6;0;840;-519;3487;-2220;272;1292;-693
493571;1;6;0;840;-535;3345;-2120;351;1588;-873
493581;1;6;0;840;-631;3312;-2011;460;1755;-1083
493591;1;6;0;841;-729;3295;-1978;548;1877;-1367
493601;1;6;0;841;-904;3255;-1895;591;1873;-1583
493611;1;6;0;841;-1126;3271;-1806;652;1704;-1730
493621;1;6;0;841;-1262;3309;-1754;624;1513;-1767
493631;1;6;0;841;-1370;3292;-1784;575;1248;-1716
493641;1;6;0;841;-1500;3303;-1792;525;855;-1632
493651;1;6;0;841;-1609;3341;-1699;446;475;-1620
493661;1;6;0;841;-1646;3406;-1636;307;46;-1576
493671;1;6;0;841;-1646;3462;-1626;208;-320;-1402
493681;1;6;0;841;-1594;3438;-1744;124;-546;-1065
493691;1;6;0;841;-1357;3282;-1891;103;-519;-669
493701;1;6;0;841;-1180;3195;-2062;148;-339;-437
493711;1;6;0;841;-1065;3095;-2254;257;-65;-479
493721;1;6;0;841;-1033;3027;-2341;351;167;-736
493731;1;6;0;841;-1143;2997;-2389;408;384;-1172
493741;1;6;0;841;-1343;2971;-2335;345;398;-1704
493751;1;6;0;841;-1560;3028;-2298;237;367;-2160
493761;1;6;0;841;-1745;3021;-2274;92;234;-2383
493771;1;6;0;841;-1805;3066;-2290;-41;17;-2330
493781;1;6;0;841;-1760;3110;-2257;-150;-58;-2033
493791;1;6;0;841;-1585;3093;-2187;-245;-1;-1679
493801;1;6;0;841;-1386;2978;-2187;-270;120;-1445
493811;1;6;0;841;-1187;2875;-2214;-240;122;-1440
493821;1;6;0;841;-1142;2800;-2236;-217;56;-1598
493831;1;6;0;841;-1155;2780;-2233;-164;-45;-1884
493841;1;6;0;841;-1259;2827;-2217;-103;-100;-2143
493851;1;6;0;841;-1400;2925;-2163;-32;-114;-2305
493861;1;6;0;841;-1502;2985;-2134;41;-113;-2301
493871;1;6;0;841;-1518;3009;-2149;95;-82;-2176
493881;1;6;0;841;-1507;2962;-2153;138;-18;-2024
493891;1;6;0;841;-1491;2894;-2194;237;16;-1947
493901;1;6;0;841;-1464;2859;-2265;356;12;-1950
493911;1;6;0;841;-1475;2835;-2287;477;15;-2018
493921;1;6;0;841;-1472;2872;-2349;598;31;-2051
493931;1;6;0;841;-1504;2896;-2398;674;101;-2027
493941;1;6;0;841;-1494;2862;-2452;687;250;-1973
493951;1;6;0;841;-1477;2784;-2534;678;451;-1892
493961;1;6;0;841;-1498;2730;-2556;679;633;-1830
493971;1;6;0;841;-1548;2674;-2509;677;752;-1794
493981;1;6;0;841;-1617;2674;-2455;642;805;-1815
493991;1;6;0;841;-1658;2709;-2456;588;819;-1824
494001;1;6;0;841;-1637;2733;-2464;482;828;-1736
494011;1;6;0;841;-1581;2722;-2495;494;936;-1641
494021;1;6;0;841;-1609;2733;-2547;513;1055;-1551
494031;1;6;0;841;-1605;2737;-2516;551;1109;-1547
494041;1;6;0;841;-1689;2796;-2518;598;1110;-1637
494051;1;6;0;841;-1773;2895;-2501;570;1015;-1721
494061;1;6;0;841;-1862;2985;-2523;518;865;-1716
494071;1;6;0;841;-1907;3019;-2500;446;715;-1558
494081;1;6;0;841;-1837;2978;-2494;435;632;-1315
494091;1;6;0;842;-1805;2903;-2439;462;635;-1098
494101;1;6;0;842;-1758;2829;-2411;521;653;-964
494111;1;6;0;842;-1694;2839;-2422;567;641;-963
494121;1;6;0;842;-1699;2856;-2438;585;611;-1011
494131;1;6;0;842;-1713;2845;-2460;594;558;-1049
494141;1;6;0;842;-1735;2775;-2494;632;565;-1055
494151;1;6;0;842;-1694;2696;-2532;648;608;-1065
494161;1;6;0;842;-1689;2617;-2526;670;677;-1098
494171;1;6;0;842;-1680;2529;-2501;685;727;-1199
494181;1;6;0;842;-1728;2512;-2538;682;755;-1340
494191;1;6;0;842;-1776;2561;-2552;621;743;-1467
494201;1;6;0;842;-1855;2643;-2570;551;704;-1572
494211;1;6;0;842;-1898;2710;-2597;463;660;-1584
494221;1;6;0;842;-1885;2758;-2571;402;588;-1509
494231;1;6;0;842;-1905;2746;-2529;393;510;-1419
494241;1;6;0;842;-1899;2739;-2485;345;407;-1284
494251;1;6;0;842;-1876;2709;-2451;337;365;-1165
494261;1;6;0;842;-1844;2667;-2439;295;341;-1047
494271;1;6;0;842;-1843;2603;-2432;280;333;-965
494281;1;6;0;842;-1822;2568;-2407;248;273;-952
494291;1;6;0;842;-1806;2619;-2394;227;177;-977
494301;1;6;0;842;-1798;2619;-2415;197;113;-1014
494311;1;6;0;842;-1794;2648;-2461;187;70;-1012
494321;1;6;0;842;-1848;2679;-2525;135;62;-1008
494331;1;6;0;842;-1914;2702;-2574;38;34;-1031
494341;1;6;0;842;-1954;2680;-2559;-60;5;-994
494351;1;6;0;842;-2002;2618;-2538;-119;-11;-888
494361;1;6;0;842;-1945;2531;-2539;-148;41;-758
494371;1;6;0;842;-1918;2458;-2518;-132;124;-667
494381;1;6;0;842;-1896;2448;-2538;-106;185;-660
494391;1;6;0;842;-1830;2513;-2567;-111;247;-718
494401;1;6;0;842;-1839;2533;-2601;-125;257;-774
494411;1;6;0;842;-1870;2556;-2600;-150;231;-792
494421;1;6;0;842;-1865;2547;-2586;-192;201;-748
494431;1;6;0;842;-1854;2501;-2509;-247;176;-689
494441;1;6;0;842;-1805;2459;-2489;-343;115;-669
494451;1;6;0;842;-1789;2448;-2478;-233;140;-774
494461;1;6;0;842;-1800;2457;-2479;-180;186;-868
494471;1;6;0;842;-1806;2487;-2505;-106;267;-938
494481;1;6;0;842;-1853;2496;-2523;-67;318;-989
494491;1;6;0;842;-1907;2516;-2546;-73;286;-1032
494501;1;6;0;842;-1932;2557;-2557;-75;199;-1046
494511;1;6;0;842;-1961;2563;-2556;-88;114;-1021
494521;1;6;0;842;-1994;2569;-2555;-74;37;-973
494531;1;6;0;842;-2005;2572;-2551;-72;-36;-913
494541;1;6;0;842;-2011;2542;-2521;-87;-113;-863
494551;1;6;0;842;-2014;2519;-2511;-93;-213;-837
494561;1;6;0;842;-2010;2495;-2493;-89;-314;-831
494571;1;6;0;842;-2031;2544;-2489;-91;-419;-850
494581;1;6;0;842;-2056;2584;-2460;-82;-512;-874
494591;1;6;0;843;-2108;2579;-2446;-50;-580;-859
494601;1;6;0;843;-2139;2543;-2434;-28;-653;-763
494611;1;6;0;843;-2098;2494;-2428;-60;-693;-646
494621;1;6;0;843;-2014;2404;-2417;-71;-677;-593
494631;1;6;0;843;-1888;2280;-2428;-75;-591;-609
494641;1;6;0;843;-1786;2159;-2435;-91;-450;-675
494651;1;6;0;843;-1745;2134;-2435;13;-390;-954
494661;1;6;0;843;-1779;2191;-2433;32;-383;-1143
494671;1;6;0;843;-1868;2272;-2444;32;-399;-1184
494681;1;6;0;843;-1981;2351;-2483;-4;-428;-1075
494691;1;6;0;843;-2096;2417;-2502;-38;-462;-892
494701;1;6;0;843;-2125;2469;-2486;-36;-505;-718
494711;1;6;0;843;-2113;2472;-2453;-47;-560;-603
494721;1;6;0;843;-2066;2442;-2449;-43;-657;-567
494731;1;6;0;843;-1996;2402;-2414;-35;-892;-568
494741;1;6;0;843;-2012;2487;-2474;3;-837;-578
494751;1;6;0;843;-2084;2598;-2532;1;-935;-578
494761;1;6;0;843;-2140;2720;-2585;-55;-1259;-530
494771;1;6;0;843;-2204;2770;-2612;-45;-988;-382
494781;1;6;0;843;-2152;2775;-2624;-62;-834;-219
494791;1;6;0;843;-2056;2713;-2614;-90;-637;-60
494801;1;6;0;843;-1939;2582;-2592;-71;-441;26
494811;1;6;0;843;-1857;2520;-2614;-48;-264;-7
494821;1;6;0;843;-1884;2458;-2578;-55;-95;-77
494831;1;6;0;843;-1932;2429;-2648;-83;38;-147
494841;1;6;0;843;-2022;2341;-2665;-105;171;-166
494851;1;6;0;843;-2125;2284;-2667;-93;253;-172
494861;1;6;0;843;-2174;2242;-2620;-95;260;-148
494871;1;6;0;843;-2186;2225;-2492;-65;201;-124
494881;1;6;0;843;-2194;2230;-2415;-58;79;-185
494891;1;6;0;843;-2162;2239;-2358;-106;-136;-282
494901;1;6;0;843;-2111;2309;-2335;-172;-658;-444
494911;1;6;0;843;-2075;2375;-2415;-178;-619;-608
494921;1;6;0;843;-2059;2409;-2433;-164;-653;-682
494931;1;6;0;843;-2036;2439;-2461;-139;-742;-676
494941;1;6;0;843;-2012;2382;-2433;-163;-711;-625
494951;1;6;0;843;-2006;2354;-2440;-140;-538;-620
494961;1;6;0;843;-2009;2334;-2458;-143;-488;-626
494971;1;6;0;843;-2058;2318;-2481;-157;-488;-632
494981;1;6;0;843;-2129;2341;-2508;-149;-530;-614
494991;1;6;0;843;-2190;2385;-2528;-154;-607;-562
495001;1;6;0;843;-2191;2428;-2543;-166;-644;-479
495011;1;6;0;843;-2203;2431;-2524;-167;-587;-386
495021;1;6;0;843;-2197;2450;-2483;-141;-482;-331
495031;1;6;0;843;-2191;2450;-2443;-133;-384;-327
495041;1;6;0;843;-2210;2426;-2434;-128;-355;-378
495051;1;6;0;843;-2215;2412;-2428;-132;-374;-389
495061;1;6;0;843;-2215;2394;-2467;-170;-413;-347
495071;1;6;0;843;-2221;2359;-2499;-210;-457;-277
495081;1;6;0;843;-2201;2344;-2514;-242;-458;-213
495091;1;6;0;844;-2185;2317;-2544;-209;-371;-167
495101;1;6;0;844;-2183;2292;-2512;-162;-254;-172
495111;1;6;0;844;-2182;2276;-2457;-118;-187;-222
495121;1;6;0;844;-2212;2296;-2433;-50;-189;-290
495131;1;6;0;844;-2241;2319;-2440;-2;-247;-328
495141;1;6;0;844;-2246;2371;-2467;39;-323;-297
495151;1;6;0;844;-2268;2377;-2488;60;-366;-216
495161;1;6;0;844;-2272;2386;-2458;80;-371;-115
495171;1;6;0;844;-2278;2360;-2434;70;-337;-34
495181;1;6;0;844;-2311;2309;-2414;58;-312;6
495191;1;6;0;844;-2317;2265;-2366;47;-321;3
495201;1;6;0;844;-2300;2244;-2326;26;-389;1
495211;1;6;0;844;-2260;2228;-2328;11;-485;-13
495221;1;6;0;844;-2211;2227;-2357;-8;-566;-18
495231;1;6;0;844;-2188;2247;-2433;4;-620;-19
495241;1;6;0;844;-2195;2265;-2472;4;-633;-14
495251;1;6;0;844;-2178;2292;-2470;-12;-576;-7
495261;1;6;0;844;-2175;2283;-2454;-35;-498;-12
495271;1;6;0;844;-2213;2279;-2431;-59;-448;-32
495281;1;6;0;844;-2238;2321;-2429;-75;-475;-54
495291;1;6;0;844;-2275;2324;-2398;-92;-518;-35
495301;1;6;0;844;-2275;2308;-2392;-95;-526;30
495311;1;6;0;844;-2242;2272;-2375;-89;-512;82
495321;1;6;0;844;-2232;2228;-2344;-80;-459;91
495331;1;6;0;844;-2177;2180;-2348;-77;-350;36
495341;1;6;0;844;-2178;2169;-2342;-77;-245;-75
495351;1;6;0;844;-2212;2209;-2366;-89;-238;-202
495361;1;6;0;844;-2269;2258;-2401;-110;-305;-286
495371;1;6;0;844;-2347;2294;-2405;-134;-409;-309
495381;1;6;0;844;-2398;2358;-2435;-152;-513;-247
495391;1;6;0;844;-2399;2360;-2406;-166;-562;-140
495401;1;6;0;844;-2368;2371;-2432;-164;-547;-54
495411;1;6;0;844;-2311;2347;-2442;-140;-474;-10
495421;1;6;0;844;-2252;2316;-2424;-105;-384;11
495431;1;6;0;844;-2227;2313;-2432;-76;-333;-2
495441;1;6;0;844;-2229;2322;-2417;-67;-309;-35
495451;1;6;0;844;-2237;2315;-2423;-75;-307;-63
495461;1;6;0;844;-2272;2300;-2422;-94;-312;-74
495471;1;6;0;844;-2285;2279;-2420;-140;-316;-59
495481;1;6;0;844;-2262;2262;-2434;-155;-302;-64
495491;1;6;0;844;-2254;2243;-2418;-154;-248;-89
495501;1;6;0;844;-2228;2212;-2407;-146;-171;-115
495511;1;6;0;844;-2247;2228;-2388;-207;-164;-158
495521;1;6;0;844;-2261;2272;-2361;-175;-140;-204
495531;1;6;0;844;-2271;2301;-2369;-185;-193;-205
495541;1;6;0;844;-2293;2346;-2392;-186;-225;-188
495551;1;6;0;844;-2303;2359;-2365;-193;-240;-132
495561;1;6;0;844;-2283;2378;-2342;-192;-235;-88
495571;1;6;0;844;-2269;2379;-2332;-188;-220;-70
495581;1;6;0;844;-2260;2366;-2331;-184;-224;-62
