timestamp;subject_id;activity;label;seq;ax;ay;az;gx;gy;gz
532591;1;7;0;919;930;3229;-2382;-38;-262;-100
532601;1;7;0;919;1017;3224;-2426;-35;-251;-156
532611;1;7;0;919;1031;3200;-2516;-5;-249;-238
532621;1;7;0;919;977;3232;-2636;14;-271;-256
532631;1;7;0;919;929;3244;-2711;16;-247;-214
532641;1;7;0;919;885;3214;-2736;0;-209;-144
532651;1;7;0;919;870;3196;-2663;-26;-211;-87
532661;1;7;0;919;925;3236;-2577;-27;-218;-43
532671;1;7;0;919;987;3231;-2543;18;-181;-70
532681;1;7;0;919;1009;3261;-2596;110;-215;-106
532691;1;7;0;919;970;3396;-2716;199;-393;-60
532701;1;7;0;919;874;3634;-2807;248;-635;114
532711;1;7;0;919;837;3788;-2883;271;-754;360
532721;1;7;0;919;926;3776;-2844;264;-702;541
532731;1;7;0;919;989;3575;-2731;301;-628;573
532741;1;7;0;919;1025;3294;-2616;362;-650;462
532751;1;7;0;919;1004;3055;-2537;431;-773;266
532761;1;7;0;919;977;3009;-2562;492;-896;75
532771;1;7;0;919;937;3093;-2663;529;-906;-5
532781;1;7;0;919;893;3235;-2741;568;-866;7
532791;1;7;0;919;849;3324;-2794;607;-807;-13
532801;1;7;0;919;868;3347;-2734;634;-821;-82
532811;1;7;0;919;895;3293;-2692;660;-877;-184
532821;1;7;0;919;944;3168;-2637;690;-929;-285
532831;1;7;0;919;931;3041;-2605;711;-939;-380
532841;1;7;0;919;910;2968;-2594;701;-923;-467
532851;1;7;0;919;869;2946;-2581;700;-863;-543
532861;1;7;0;919;822;2984;-2567;768;-761;-583
532871;1;7;0;919;791;3046;-2592;817;-691;-601
532881;1;7;0;919;800;3127;-2627;857;-632;-624
532891;1;7;0;919;802;3138;-2654;878;-607;-628
532901;1;7;0;919;815;3115;-2653;874;-580;-648
532911;1;7;0;919;790;3085;-2623;820;-538;-658
532921;1;7;0;919;758;3001;-2571;769;-486;-642
532931;1;7;0;919;743;2921;-2511;730;-434;-632
532941;1;7;0;919;721;2917;-2485;689;-430;-617
532951;1;7;0;919;702;2951;-2457;636;-446;-562
532961;1;7;0;919;756;2990;-2484;616;-461;-488
532971;1;7;0;919;782;3083;-2547;626;-474;-436
532981;1;7;0;919;789;3150;-2594;646;-482;-361
532991;1;7;0;919;805;3194;-2638;650;-463;-311
533001;1;7;0;919;803;3151;-2652;651;-415;-287
533011;1;7;0;919;761;3083;-2658;624;-384;-328
533021;1;7;0;919;719;2998;-2663;581;-353;-388
533031;1;7;0;919;664;2965;-2647;549;-341;-436
533041;1;7;0;919;590;2952;-2623;519;-324;-422
533051;1;7;0;919;625;2993;-2601;493;-268;-343
533061;1;7;0;919;642;3030;-2614;470;-173;-280
533071;1;7;0;919;625;3075;-2660;444;-111;-223
533081;1;7;0;919;657;3112;-2660;437;-105;-184
533091;1;7;0;920;649;3109;-2678;417;-116;-199
533101;1;7;0;920;644;3041;-2647;395;-168;-242
533111;1;7;0;920;640;2981;-2635;394;-249;-290
533121;1;7;0;920;695;2937;-2629;374;-298;-354
533131;1;7;0;920;730;2836;-2597;388;-315;-414
533141;1;7;0;920;703;2822;-2655;436;-361;-468
533151;1;7;0;920;637;2936;-2707;426;-367;-457
533161;1;7;0;920;582;3036;-2709;374;-384;-365
533171;1;7;0;920;501;3136;-2717;326;-373;-256
533181;1;7;0;920;489;3171;-2686;279;-339;-142
533191;1;7;0;920;492;3139;-2636;229;-302;-87
533201;1;7;0;920;546;3068;-2605;203;-266;-81
533211;1;7;0;920;591;2997;-2602;189;-272;-103
533221;1;7;0;920;612;2919;-2657;174;-296;-95
533231;1;7;0;920;611;2858;-2677;153;-314;-62
533241;1;7;0;920;633;2832;-2698;121;-281;-54
533251;1;7;0;920;644;2782;-2717;103;-263;-85
533261;1;7;0;920;595;2823;-2716;85;-300;-119
533271;1;7;0;920;560;2889;-2706;54;-349;-144
533281;1;7;0;920;570;2939;-2703;-12;-373;-196
533291;1;7;0;920;567;3004;-2763;-58;-373;-276
533301;1;7;0;920;582;2978;-2766;-84;-375;-311
533311;1;7;0;920;576;2925;-2730;-76;-392;-311
533321;1;7;0;920;542;2918;-2669;-53;-403;-263
533331;1;7;0;920;560;2937;-2576;-45;-421;-159
533341;1;7;0;920;569;2971;-2555;-16;-449;-72
533351;1;7;0;920;588;2986;-2604;-27;-470;7
533361;1;7;0;920;666;3002;-2656;-29;-494;72
533371;1;7;0;920;712;2991;-2707;-36;-463;100
533381;1;7;0;920;742;2958;-2793;-24;-427;71
533391;1;7;0;920;716;2938;-2856;-8;-453;0
533401;1;7;0;920;654;2934;-2901;-12;-510;-48
533411;1;7;0;920;610;2999;-2907;-43;-559;-67
533421;1;7;0;920;557;3072;-2868;-69;-598;-49
533431;1;7;0;920;502;3117;-2795;-111;-586;12
533441;1;7;0;920;515;3091;-2714;-124;-523;100
533451;1;7;0;920;553;3044;-2657;-102;-444;157
533461;1;7;0;920;597;2964;-2670;-83;-364;162
533471;1;7;0;920;621;2889;-2756;-73;-336;62
533481;1;7;0;920;596;2853;-2824;-116;-362;-68
533491;1;7;0;920;532;2880;-2889;-176;-385;-174
533501;1;7;0;920;510;2916;-2916;-220;-390;-211
533511;1;7;0;920;462;2953;-2881;-238;-359;-174
533521;1;7;0;920;445;3023;-2812;-212;-345;-140
533531;1;7;0;920;434;3026;-2753;-219;-363;-109
533541;1;7;0;920;445;2995;-2681;-214;-374;-98
533551;1;7;0;920;473;2988;-2722;-215;-397;-97
533561;1;7;0;920;512;3010;-2780;-230;-410;-52
533571;1;7;0;920;565;3035;-2801;-259;-436;-17
533581;1;7;0;920;581;3054;-2840;-233;-456;-34
533591;1;7;0;921;558;3079;-2908;-207;-469;-47
533601;1;7;0;921;505;3039;-2897;-196;-458;-21
533611;1;7;0;921;470;2963;-2878;-213;-413;6
533621;1;7;0;921;500;2923;-2816;-219;-356;27
533631;1;7;0;921;514;2932;-2813;-197;-340;21
533641;1;7;0;921;520;2998;-2820;-159;-386;44
533651;1;7;0;921;515;3039;-2800;-108;-447;88
533661;1;7;0;921;536;3035;-2788;-85;-455;125
533671;1;7;0;921;538;2968;-2755;-59;-470;106
533681;1;7;0;921;530;2895;-2783;-76;-528;21
533691;1;7;0;921;529;2827;-2804;-131;-572;-82
533701;1;7;0;921;504;2817;-2818;-171;-596;-159
533711;1;7;0;921;470;2829;-2835;-205;-568;-190
533721;1;7;0;921;458;2896;-2835;-210;-522;-180
533731;1;7;0;921;442;2946;-2841;-179;-496;-118
533741;1;7;0;921;434;3039;-2817;-133;-511;-37
533751;1;7;0;921;441;3097;-2818;-84;-531;33
533761;1;7;0;921;480;3101;-2812;-98;-554;69
533771;1;7;0;921;494;3010;-2857;-109;-551;44
533781;1;7;0;921;568;2966;-2865;-161;-492;-3
533791;1;7;0;921;536;2911;-2888;-219;-456;-42
533801;1;7;0;921;515;2898;-2850;-256;-486;-73
533811;1;7;0;921;522;2911;-2796;-297;-501;-98
533821;1;7;0;921;523;2918;-2792;-281;-480;-145
533831;1;7;0;921;524;2945;-2803;-233;-453;-178
533841;1;7;0;921;485;2977;-2804;-196;-454;-161
533851;1;7;0;921;423;2979;-2848;-171;-423;-129
533861;1;7;0;921;431;3034;-2831;-179;-375;-87
533871;1;7;0;921;456;3025;-2809;-167;-301;-51
533881;1;7;0;921;519;3003;-2820;-157;-242;-56
533891;1;7;0;921;585;2940;-2844;-131;-229;-105
533901;1;7;0;921;582;2927;-2895;-114;-259;-195
533911;1;7;0;921;538;2926;-2927;-123;-308;-261
533921;1;7;0;921;468;2958;-2935;-142;-327;-267
533931;1;7;0;921;404;2991;-2870;-162;-317;-212
533941;1;7;0;921;398;3016;-2812;-189;-280;-156
533951;1;7;0;921;419;3008;-2734;-249;-236;-86
533961;1;7;0;921;446;3013;-2700;-257;-229;-42
533971;1;7;0;921;483;3013;-2709;-226;-290;-25
533981;1;7;0;921;489;3028;-2739;-177;-347;-35
533991;1;7;0;921;476;3046;-2781;-165;-386;-39
534001;1;7;0;921;480;3048;-2814;-173;-404;-12
534011;1;7;0;921;466;3071;-2841;-194;-409;42
534021;1;7;0;921;459;3061;-2806;-226;-392;114
534031;1;7;0;921;440;2973;-2776;-248;-359;187
534041;1;7;0;921;414;2906;-2770;-237;-358;211
534051;1;7;0;921;392;2844;-2797;-227;-429;117
534061;1;7;0;921;334;2826;-2767;-240;-475;-13
534071;1;7;0;921;246;2840;-2687;-249;-546;-99
534081;1;7;0;921;168;2854;-2579;-290;-658;-126
534091;1;7;0;922;107;2872;-2435;-318;-848;-94
534101;1;7;0;922;65;2847;-2334;-421;-1080;-61
534111;1;7;0;922;52;2763;-2274;-433;-1246;-74
534121;1;7;0;922;49;2704;-2250;-509;-1471;-64
534131;1;7;0;922;58;2614;-2248;-518;-1639;-53
534141;1;7;0;922;122;2580;-2278;-537;-1713;10
534151;1;7;0;922;171;2597;-2387;-505;-1702;35
534161;1;7;0;922;142;2728;-2542;-483;-1683;52
534171;1;7;0;922;95;2968;-2649;-495;-1688;84
534181;1;7;0;922;106;3158;-2617;-420;-1752;139
534191;1;7;0;922;226;3266;-2543;-290;-1852;216
534201;1;7;0;922;187;3083;-2611;-125;-1819;247
534211;1;7;0;922;289;2951;-2644;-107;-1606;327
534221;1;7;0;922;252;2763;-2521;-168;-1423;423
534231;1;7;0;922;228;2716;-2484;-269;-1532;460
534241;1;7;0;922;160;2749;-2530;-329;-1728;465
534251;1;7;0;922;90;2808;-2661;-391;-1879;495
534261;1;7;0;922;101;2914;-2825;-461;-1873;588
534271;1;7;0;922;110;2955;-2895;-491;-1836;681
534281;1;7;0;922;154;2910;-2857;-546;-1760;695
534291;1;7;0;922;159;2794;-2749;-610;-1701;634
534301;1;7;0;922;208;2625;-2546;-649;-1699;489
534311;1;7;0;922;304;2475;-2429;-648;-1766;261
534321;1;7;0;922;318;2448;-2415;-627;-1872;75
534331;1;7;0;922;262;2603;-2522;-645;-2048;130
534341;1;7;0;922;106;2765;-2638;-656;-2175;293
534351;1;7;0;922;98;2860;-2708;-705;-2137;403
534361;1;7;0;922;154;2837;-2659;-739;-1947;344
534371;1;7;0;922;203;2646;-2567;-776;-1785;195
534381;1;7;0;922;244;2509;-2412;-790;-1763;-25
534391;1;7;0;922;282;2480;-2332;-823;-1867;-192
534401;1;7;0;922;233;2587;-2430;-812;-2001;-277
534411;1;7;0;922;198;2863;-2660;-784;-2012;-212
534421;1;7;0;922;81;3135;-2912;-735;-1998;-69
534431;1;7;0;922;-1;3499;-3069;-693;-1981;100
534441;1;7;0;922;-19;3555;-2997;-759;-1921;275
534451;1;7;0;922;88;3284;-2730;-807;-1763;364
534461;1;7;0;922;277;2895;-2370;-771;-1615;291
534471;1;7;0;922;297;2635;-2168;-751;-1657;211
534481;1;7;0;922;164;2714;-2142;-713;-1987;196
534491;1;7;0;922;31;2981;-2379;-683;-2366;364
534501;1;7;0;922;95;3226;-2704;-640;-2439;488
534511;1;7;0;922;143;3357;-2957;-592;-2261;610
534521;1;7;0;922;192;3179;-2948;-589;-2027;547
534531;1;7;0;922;274;2808;-2654;-558;-1906;190
534541;1;7;0;922;324;2457;-2348;-502;-1967;-149
534551;1;7;0;922;29;2411;-2264;-468;-2181;-295
534561;1;7;0;922;-252;2542;-2291;-459;-2447;-84
534571;1;7;0;922;-529;2822;-2490;-414;-2723;200
534581;1;7;0;922;-608;3226;-2736;-341;-2847;475
534591;1;7;0;923;-520;3458;-2823;-350;-2723;550
534601;1;7;0;923;-253;3441;-2782;-374;-2441;335
534611;1;7;0;923;-74;3084;-2562;-465;-2215;-61
534621;1;7;0;923;106;2672;-2241;-537;-2236;-516
534631;1;7;0;923;134;2457;-2033;-651;-2355;-786
534641;1;7;0;923;-87;2473;-2027;-724;-2643;-701
534651;1;7;0;923;-329;2676;-2257;-721;-2934;-287
534661;1;7;0;923;-337;2982;-2722;-633;-3113;102
534671;1;7;0;923;-418;3208;-3059;-477;-2760;368
534681;1;7;0;923;-282;3244;-3188;-275;-2371;179
534691;1;7;0;923;-210;3055;-3022;-166;-2041;-365
534701;1;7;0;923;-155;2750;-2595;-180;-1895;-1014
534711;1;7;0;923;-171;2587;-2233;-245;-1946;-1446
534721;1;7;0;923;-513;2690;-2107;-424;-2158;-1588
534731;1;7;0;923;-790;3131;-2237;-647;-2567;-1289
534741;1;7;0;923;-1106;3681;-2568;-903;-3092;-811
534751;1;7;0;923;-1198;4138;-2908;-1127;-3536;-260
534761;1;7;0;923;-849;4280;-3079;-1341;-3895;163
534771;1;7;0;923;-366;3963;-3012;-1418;-3357;174
534781;1;7;0;923;-46;3358;-2684;-1230;-2646;-252
534791;1;7;0;923;20;3012;-2352;-1050;-2312;-785
534801;1;7;0;923;-9;2940;-2244;-1028;-2230;-1167
534811;1;7;0;923;-270;3060;-2245;-1078;-2373;-1017
534821;1;7;0;923;-731;3391;-2313;-1069;-2757;-431
534831;1;7;0;923;-953;3833;-2557;-1056;-3220;311
534841;1;7;0;923;-823;4083;-2994;-1069;-3252;944
534851;1;7;0;923;-635;4034;-3239;-976;-2953;1198
534861;1;7;0;923;-327;3716;-3242;-795;-2431;993
534871;1;7;0;923;-134;3243;-3089;-586;-1844;500
534881;1;7;0;923;-121;2782;-2741;-342;-1322;-143
534891;1;7;0;923;-413;2655;-2534;-178;-1180;-580
534901;1;7;0;923;-809;2760;-2463;-57;-1294;-690
534911;1;7;0;923;-1196;3147;-2467;-36;-1540;-556
534921;1;7;0;923;-1378;3685;-2517;-53;-1819;-287
534931;1;7;0;923;-1293;4129;-2547;-236;-2077;45
534941;1;7;0;923;-1075;4192;-2575;-596;-2381;176
534951;1;7;0;923;-712;3916;-2538;-1020;-2453;113
534961;1;7;0;923;-338;3395;-2362;-1391;-2577;-15
534971;1;7;0;923;-393;2836;-2113;-1660;-2800;-142
534981;1;7;0;923;-504;2697;-2008;-1677;-2744;-243
534991;1;7;0;923;-992;2847;-1974;-1705;-3150;-192
535001;1;7;0;923;-1357;3284;-2045;-1630;-3665;38
535011;1;7;0;923;-1179;3879;-2333;-1577;-3999;374
535021;1;7;0;923;-847;4168;-2562;-1520;-3852;747
535031;1;7;0;923;-456;4013;-2587;-1445;-3320;1002
535041;1;7;0;923;-259;3602;-2415;-1292;-2726;1146
535051;1;7;0;923;-275;3112;-2135;-1077;-2401;1191
535061;1;7;0;923;-480;2892;-1789;-745;-2462;1156
535071;1;7;0;923;-838;2896;-1787;-252;-2745;1375
535081;1;7;0;923;-1159;3033;-2047;-10;-2795;1798
535091;1;7;0;924;-1174;3276;-2370;70;-2556;2138
535101;1;7;0;924;-933;3409;-2641;147;-2178;2294
535111;1;7;0;924;-699;3366;-2819;276;-1768;2151
535121;1;7;0;924;-568;3266;-2834;371;-1414;1873
535131;1;7;0;924;-557;3091;-2771;546;-1276;1624
535141;1;7;0;924;-778;2995;-2598;736;-1310;1516
535151;1;7;0;924;-1029;3136;-2419;903;-1445;1670
535161;1;7;0;924;-1116;3449;-2356;979;-1699;2046
535171;1;7;0;924;-1058;3679;-2248;998;-1590;2479
535181;1;7;0;924;-870;3791;-2343;1068;-1213;2684
535191;1;7;0;924;-605;3724;-2577;1099;-757;2583
535201;1;7;0;924;-498;3532;-2740;1081;-425;2315
535211;1;7;0;924;-538;3348;-2779;968;-355;1882
535221;1;7;0;924;-736;3330;-2747;793;-574;1417
535231;1;7;0;924;-994;3516;-2704;526;-939;1089
535241;1;7;0;924;-1245;3861;-2559;259;-1276;1066
535251;1;7;0;924;-1366;4222;-2460;11;-1474;1404
535261;1;7;0;924;-1328;4434;-2526;-123;-1362;1871
535271;1;7;0;924;-1175;4505;-2645;-213;-1042;2196
535281;1;7;0;924;-959;4336;-2746;-265;-609;2200
535291;1;7;0;924;-732;4020;-2746;-221;-135;1927
535301;1;7;0;924;-620;3753;-2572;-132;222;1439
535311;1;7;0;924;-488;3567;-2441;-76;614;912
535321;1;7;0;924;-449;3466;-2266;-61;829;496
535331;1;7;0;924;-601;3499;-2219;-153;847;253
535341;1;7;0;924;-780;3543;-2112;-267;754;294
535351;1;7;0;924;-921;3684;-2075;-379;508;572
535361;1;7;0;924;-944;3732;-2092;-440;330;843
535371;1;7;0;924;-858;3752;-2095;-459;291;959
535381;1;7;0;924;-690;3638;-2085;-463;315;915
535391;1;7;0;924;-502;3453;-2061;-485;356;812
535401;1;7;0;924;-396;3268;-2020;-513;375;688
535411;1;7;0;924;-372;3128;-1992;-507;363;554
535421;1;7;0;924;-342;3111;-2074;-421;460;427
535431;1;7;0;924;-302;3190;-2099;-304;636;474
535441;1;7;0;924;-372;3324;-2179;-206;875;582
535451;1;7;0;924;-442;3457;-2273;-61;1118;688
535461;1;7;0;924;-513;3535;-2292;43;1306;687
535471;1;7;0;924;-498;3509;-2236;94;1475;598
535481;1;7;0;924;-517;3411;-2134;51;1564;479
535491;1;7;0;924;-479;3332;-2046;-59;1564;357
535501;1;7;0;924;-430;3305;-2065;-124;1585;312
535511;1;7;0;924;-394;3351;-2108;-134;1642;296
535521;1;7;0;924;-365;3451;-2232;-111;1722;307
535531;1;7;0;924;-277;3527;-2384;-64;1833;355
535541;1;7;0;924;-240;3547;-2515;-46;2032;346
535551;1;7;0;924;-273;3509;-2591;3;2235;305
535561;1;7;0;924;-252;3451;-2560;70;2443;203
535571;1;7;0;924;-240;3400;-2478;123;2673;62
535581;1;7;0;924;-311;3296;-2490;106;2840;-67
535591;1;7;0;925;-180;3441;-2279;-33;3293;-69
535601;1;7;0;925;-108;3596;-2205;-27;3481;70
535611;1;7;0;925;-7;3731;-2147;50;3438;214
535621;1;7;0;925;107;3757;-2181;151;3226;260
535631;1;7;0;925;101;3756;-2198;285;2933;271
535641;1;7;0;925;3;3673;-2274;364;2651;226
535651;1;7;0;925;-42;3547;-2348;387;2492;142
535661;1;7;0;925;-56;3407;-2373;335;2461;15
535671;1;7;0;925;-28;3287;-2311;243;2499;-163
535681;1;7;0;925;-103;3198;-2226;144;2511;-356
535691;1;7;0;925;-139;3311;-2158;44;2471;-489
535701;1;7;0;925;-97;3473;-2080;-82;2383;-495
535711;1;7;0;925;-80;3636;-1958;-89;2306;-345
535721;1;7;0;925;-23;3737;-1814;19;2208;-96
535731;1;7;0;925;40;3740;-1708;194;2068;212
535741;1;7;0;925;88;3656;-1704;348;1891;456
535751;1;7;0;925;75;3484;-1834;458;1700;603
535761;1;7;0;925;55;3292;-2004;547;1541;634
535771;1;7;0;925;69;3183;-2162;637;1431;562
535781;1;7;0;925;80;3093;-2292;722;1445;471
535791;1;7;0;925;61;3105;-2402;771;1482;362
535801;1;7;0;925;29;3176;-2460;776;1505;256
535811;1;7;0;925;12;3300;-2484;730;1481;157
535821;1;7;0;925;-15;3413;-2414;685;1424;61
535831;1;7;0;925;-61;3485;-2299;644;1307;-27
535841;1;7;0;925;-60;3565;-2191;681;1197;-71
535851;1;7;0;925;-35;3566;-2123;741;1090;-54
535861;1;7;0;925;-33;3617;-2054;769;878;46
535871;1;7;0;925;35;3623;-2014;771;617;191
535881;1;7;0;925;138;3594;-2020;749;399;379
535891;1;7;0;925;222;3523;-2031;740;244;574
535901;1;7;0;925;275;3436;-2102;734;159;748
535911;1;7;0;925;280;3336;-2209;754;78;848
535921;1;7;0;925;292;3265;-2314;785;23;846
535931;1;7;0;925;307;3239;-2421;849;46;742
535941;1;7;0;925;311;3222;-2493;890;122;577
535951;1;7;0;925;312;3233;-2550;890;193;387
535961;1;7;0;925;355;3236;-2566;828;272;237
535971;1;7;0;925;331;3258;-2568;732;357;139
535981;1;7;0;925;331;3308;-2600;595;393;75
535991;1;7;0;925;333;3382;-2622;443;430;33
536001;1;7;0;925;333;3409;-2624;324;481;65
536011;1;7;0;925;338;3403;-2607;258;510;132
536021;1;7;0;925;312;3341;-2574;234;537;200
536031;1;7;0;925;280;3262;-2552;247;552;232
536041;1;7;0;925;290;3203;-2538;317;537;232
536051;1;7;0;925;296;3173;-2529;381;573;239
536061;1;7;0;925;268;3159;-2538;454;599;283
536071;1;7;0;925;274;3175;-2512;537;577;322
536081;1;7;0;925;299;3192;-2491;589;539;341
536091;1;7;0;926;313;3183;-2496;625;472;325
536101;1;7;0;926;317;3195;-2509;649;356;265
536111;1;7;0;926;334;3190;-2523;650;218;171
536121;1;7;0;926;352;3176;-2498;628;22;105
536131;1;7;0;926;347;3163;-2535;579;-196;76
536141;1;7;0;926;326;3138;-2624;524;-367;107
536151;1;7;0;926;306;3126;-2704;485;-426;164
536161;1;7;0;926;276;3104;-2742;466;-392;212
536171;1;7;0;926;283;3082;-2756;472;-333;206
536181;1;7;0;926;286;3097;-2716;471;-296;140
536191;1;7;0;926;319;3133;-2664;453;-300;68
536201;1;7;0;926;353;3201;-2598;414;-307;33
536211;1;7;0;926;416;3245;-2517;356;-308;63
536221;1;7;0;926;442;3237;-2478;336;-351;91
536231;1;7;0;926;475;3202;-2477;317;-426;131
536241;1;7;0;926;476;3121;-2537;329;-497;153
536251;1;7;0;926;445;3058;-2619;345;-549;175
536261;1;7;0;926;427;3007;-2684;350;-581;156
536271;1;7;0;926;426;2990;-2742;373;-586;82
536281;1;7;0;926;439;2987;-2738;374;-547;-22
536291;1;7;0;926;458;3026;-2724;394;-492;-135
536301;1;7;0;926;460;3064;-2717;412;-429;-244
536311;1;7;0;926;469;3090;-2688;416;-354;-333
536321;1;7;0;926;468;3101;-2704;432;-287;-382
536331;1;7;0;926;395;3107;-2699;431;-253;-406
536341;1;7;0;926;393;3119;-2660;374;-264;-438
536351;1;7;0;926;385;3126;-2614;307;-321;-479
536361;1;7;0;926;365;3117;-2579;275;-439;-496
536371;1;7;0;926;340;3099;-2597;264;-537;-474
536381;1;7;0;926;341;3080;-2661;267;-609;-432
536391;1;7;0;926;328;3032;-2744;290;-609;-413
536401;1;7;0;926;324;3013;-2797;321;-560;-445
536411;1;7;0;926;310;3013;-2869;357;-441;-567
536421;1;7;0;926;285;3013;-2914;360;-349;-669
536431;1;7;0;926;275;3003;-2891;306;-249;-791
536441;1;7;0;926;243;3002;-2844;241;-201;-893
536451;1;7;0;926;241;3026;-2769;183;-219;-975
536461;1;7;0;926;230;3037;-2736;129;-262;-1048
536471;1;7;0;926;191;3035;-2681;125;-340;-1094
536481;1;7;0;926;154;3003;-2708;144;-406;-1114
536491;1;7;0;926;159;2967;-2729;162;-454;-1102
536501;1;7;0;926;166;2920;-2753;151;-498;-1091
536511;1;7;0;926;183;2894;-2743;120;-562;-1110
536521;1;7;0;926;231;2897;-2735;110;-631;-1169
536531;1;7;0;926;246;2964;-2776;103;-674;-1259
536541;1;7;0;926;247;3053;-2779;88;-696;-1310
536551;1;7;0;926;222;3121;-2785;72;-713;-1293
536561;1;7;0;926;169;3156;-2762;43;-729;-1269
536571;1;7;0;926;168;3185;-2745;31;-794;-1226
536581;1;7;0;926;143;3137;-2720;2;-870;-1176
536591;1;7;0;927;178;3027;-2725;-16;-943;-1132
536601;1;7;0;927;236;2936;-2775;-34;-969;-1096
536611;1;7;0;927;233;2816;-2848;-60;-942;-1111
536621;1;7;0;927;236;2780;-2924;-79;-903;-1176
536631;1;7;0;927;192;2745;-2993;-112;-836;-1312
536641;1;7;0;927;117;2802;-3010;-143;-819;-1513
536651;1;7;0;927;79;2960;-2943;-202;-861;-1667
536661;1;7;0;927;99;3159;-2910;-311;-922;-1722
536671;1;7;0;927;64;3338;-2844;-453;-1033;-1649
536681;1;7;0;927;85;3425;-2798;-610;-1149;-1426
536691;1;7;0;927;48;3421;-2760;-752;-1296;-1177
536701;1;7;0;927;14;3390;-2748;-882;-1510;-1055
536711;1;7;0;927;10;3291;-2805;-967;-1695;-1041
536721;1;7;0;927;-74;3186;-2845;-1010;-1884;-1097
536731;1;7;0;927;-193;3162;-2889;-1020;-2144;-1258
536741;1;7;0;927;-278;3337;-2880;-1049;-2435;-1448
536751;1;7;0;927;-292;3642;-2874;-1075;-2701;-1494
536761;1;7;0;927;-263;3871;-2893;-1045;-2907;-1366
536771;1;7;0;927;-213;4027;-2879;-981;-2943;-1116
536781;1;7;0;927;-193;4095;-2919;-992;-2838;-816
536791;1;7;0;927;-210;3967;-2974;-1088;-2625;-569
536801;1;7;0;927;-283;3716;-2955;-1210;-2417;-483
536811;1;7;0;927;-419;3465;-2901;-1329;-2348;-556
536821;1;7;0;927;-551;3317;-2915;-1443;-2411;-702
536831;1;7;0;927;-661;3266;-3041;-1574;-2533;-856
536841;1;7;0;927;-759;3357;-3248;-1669;-2538;-870
536851;1;7;0;927;-822;3492;-3412;-1702;-2272;-691
536861;1;7;0;927;-798;3544;-3538;-1596;-1660;-460
536871;1;7;0;927;-793;3472;-3484;-1484;-968;-403
536881;1;7;0;927;-666;3359;-3233;-1600;-523;-517
536891;1;7;0;927;-544;3308;-2970;-1470;-160;-864
536901;1;7;0;927;-494;3322;-2851;-1088;110;-1325
536911;1;7;0;927;-601;3420;-2771;-867;17;-1574
536921;1;7;0;927;-835;3546;-2669;-835;-323;-1473
536931;1;7;0;927;-1041;3685;-2602;-907;-717;-1113
536941;1;7;0;927;-1098;3825;-2560;-962;-1073;-669
536951;1;7;0;927;-1008;3960;-2623;-961;-1309;-169
536961;1;7;0;927;-872;4036;-2782;-863;-1309;273
536971;1;7;0;927;-755;4063;-2998;-774;-1199;506
536981;1;7;0;927;-676;3997;-3218;-729;-977;493
536991;1;7;0;927;-688;3981;-3331;-719;-815;317
537001;1;7;0;927;-787;3984;-3369;-738;-645;74
537011;1;7;0;927;-879;3973;-3295;-773;-523;-150
537021;1;7;0;927;-965;4024;-3154;-812;-470;-275
537031;1;7;0;927;-943;4105;-3012;-835;-400;-238
537041;1;7;0;927;-886;4188;-2929;-866;-250;-64
537051;1;7;0;927;-797;4256;-2898;-817;-180;234
537061;1;7;0;927;-666;4308;-2964;-825;-12;492
537071;1;7;0;927;-523;4219;-3076;-804;201;667
537081;1;7;0;927;-502;4034;-3103;-702;379;697
537091;1;7;0;928;-454;3811;-3089;-533;564;526
537101;1;7;0;928;-528;3628;-3124;-405;739;168
537111;1;7;0;928;-565;3471;-3041;-343;854;-218
537121;1;7;0;928;-609;3389;-2930;-296;808;-571
537131;1;7;0;928;-676;3398;-2868;-307;654;-847
537141;1;7;0;928;-741;3340;-2660;-392;513;-886
537151;1;7;0;928;-689;3360;-2484;-474;451;-815
537161;1;7;0;928;-547;3533;-2443;-516;429;-782
537171;1;7;0;928;-451;3572;-2379;-520;425;-662
537181;1;7;0;928;-318;3519;-2254;-501;421;-534
537191;1;7;0;928;-296;3340;-2293;-420;323;-505
537201;1;7;0;928;-356;3199;-2430;-357;290;-618
537211;1;7;0;928;-390;2977;-2424;-272;305;-791
537221;1;7;0;928;-454;2787;-2412;-143;379;-1040
537231;1;7;0;928;-472;2745;-2464;25;456;-1282
537241;1;7;0;928;-509;2669;-2434;168;629;-1389
537251;1;7;0;928;-537;2608;-2307;330;806;-1403
537261;1;7;0;928;-568;2613;-2116;444;1018;-1323
537271;1;7;0;928;-562;2628;-1944;525;1203;-1114
537281;1;7;0;928;-521;2665;-1765;549;1311;-776
537291;1;7;0;928;-505;2705;-1622;537;1325;-362
537301;1;7;0;928;-342;2603;-1502;519;1278;171
537311;1;7;0;928;-288;2348;-1403;468;1239;604
537321;1;7;0;928;-292;2201;-1463;438;1116;764
537331;1;7;0;928;-217;2126;-1527;424;971;718
537341;1;7;0;928;-293;2128;-1638;361;705;515
537351;1;7;0;928;-362;2132;-1684;416;548;282
537361;1;7;0;928;-363;2149;-1753;557;592;90
537371;1;7;0;928;-436;2062;-1838;649;728;-13
537381;1;7;0;928;-466;2257;-1923;640;887;-11
537391;1;7;0;928;-587;2330;-1899;592;1072;66
537401;1;7;0;928;-600;2542;-1860;612;1147;145
537411;1;7;0;928;-314;3094;-1729;684;1243;385
537421;1;7;0;928;-57;3900;-1105;1397;1075;331
537431;1;7;0;928;-832;2739;-1144;2169;2079;-414
537441;1;7;0;928;-906;2026;-2180;2742;1318;-357
537451;1;7;0;928;-820;2514;-2489;2575;1322;162
537461;1;7;0;928;-892;2574;-2658;1862;1948;691
537471;1;7;0;928;-622;2481;-2547;1136;2056;1408
537481;1;7;0;928;-429;2513;-2339;684;1963;1691
537491;1;7;0;928;-204;2534;-1925;417;1633;1412
537501;1;7;0;928;-204;2525;-1913;341;1124;850
537511;1;7;0;928;-373;2648;-2037;233;613;386
537521;1;7;0;928;-468;2788;-2097;142;289;222
537531;1;7;0;928;-580;2931;-2158;60;158;271
537541;1;7;0;928;-616;3108;-2307;-25;65;443
537551;1;7;0;928;-647;3179;-2433;-74;-20;706
537561;1;7;0;928;-600;3239;-2544;-70;-109;950
537571;1;7;0;928;-548;3234;-2525;18;-30;1066
537581;1;7;0;928;-460;3214;-2515;154;192;1058
537591;1;7;0;929;-405;3058;-2411;385;401;952
537601;1;7;0;929;-306;3050;-2404;644;583;793
537611;1;7;0;929;-253;3053;-2454;808;578;686
537621;1;7;0;929;-314;3023;-2442;894;456;615
537631;1;7;0;929;-338;3065;-2479;918;335;589
537641;1;7;0;929;-346;3020;-2553;840;250;554
537651;1;7;0;929;-366;2951;-2580;745;186;515
537661;1;7;0;929;-323;2873;-2517;630;110;469
537671;1;7;0;929;-337;2759;-2496;510;67;394
537681;1;7;0;929;-386;2744;-2543;345;-43;259
537691;1;7;0;929;-414;2786;-2585;151;-209;105
537701;1;7;0;929;-456;2865;-2596;33;-333;-41
537711;1;7;0;929;-487;2907;-2551;-67;-375;-136
537721;1;7;0;929;-523;2968;-2521;-87;-303;-191
537731;1;7;0;929;-555;3001;-2506;-85;-200;-182
537741;1;7;0;929;-511;3014;-2511;-125;-70;-172
537751;1;7;0;929;-421;3000;-2576;-206;16;-160
537761;1;7;0;929;-380;2995;-2620;-314;25;-195
537771;1;7;0;929;-349;3024;-2689;-403;-66;-251
537781;1;7;0;929;-330;3070;-2681;-453;-206;-306
537791;1;7;0;929;-342;3136;-2702;-454;-290;-360
537801;1;7;0;929;-353;3184;-2704;-419;-291;-378
537811;1;7;0;929;-316;3205;-2729;-369;-202;-361
537821;1;7;0;929;-324;3169;-2689;-265;-22;-392
537831;1;7;0;929;-338;3148;-2670;-135;140;-389
537841;1;7;0;929;-318;3114;-2633;2;265;-409
537851;1;7;0;929;-305;3072;-2689;30;348;-410
537861;1;7;0;929;-235;3047;-2767;-4;383;-360
537871;1;7;0;929;-197;3028;-2814;-94;403;-292
537881;1;7;0;929;-185;2981;-2788;-238;355;-231
537891;1;7;0;929;-213;2919;-2684;-370;244;-225
537901;1;7;0;929;-268;2935;-2637;-476;50;-274
537911;1;7;0;929;-266;2992;-2648;-533;-145;-383
537921;1;7;0;929;-322;3067;-2664;-532;-242;-466
537931;1;7;0;929;-373;3145;-2732;-539;-256;-450
537941;1;7;0;929;-430;3178;-2748;-472;-154;-355
537951;1;7;0;929;-448;3232;-2753;-427;-27;-197
537961;1;7;0;929;-405;3246;-2719;-339;119;-48
537971;1;7;0;929;-296;3209;-2652;-284;264;53
537981;1;7;0;929;-229;3115;-2607;-229;297;51
537991;1;7;0;929;-143;3056;-2573;-192;210;1
538001;1;7;0;929;-105;3048;-2587;-161;46;-85
538011;1;7;0;929;-138;3054;-2654;-151;-155;-139
538021;1;7;0;929;-212;3103;-2714;-150;-302;-138
538031;1;7;0;929;-287;3132;-2734;-132;-333;-92
538041;1;7;0;929;-323;3134;-2703;-107;-265;-20
538051;1;7;0;929;-344;3111;-2674;-88;-147;26
538061;1;7;0;929;-331;3095;-2684;-97;-63;72
538071;1;7;0;929;-284;3067;-2724;-130;-31;96
538081;1;7;0;929;-240;3026;-2743;-190;-54;75
538091;1;7;0;930;-220;3007;-2748;-249;-93;8
538101;1;7;0;930;-226;3006;-2717;-298;-132;-67
538111;1;7;0;930;-252;3015;-2711;-344;-153;-137
538121;1;7;0;930;-272;3048;-2703;-383;-161;-176
538131;1;7;0;930;-295;3073;-2682;-411;-107;-221
538141;1;7;0;930;-305;3096;-2682;-407;-37;-267
538151;1;7;0;930;-309;3100;-2685;-364;0;-292
538161;1;7;0;930;-308;3143;-2721;-323;-12;-297
538171;1;7;0;930;-318;3203;-2747;-331;-17;-197
538181;1;7;0;930;-354;3191;-2738;-338;-1;-48
538191;1;7;0;930;-299;3140;-2723;-389;48;131
538201;1;7;0;930;-232;3044;-2655;-446;67;257
538211;1;7;0;930;-188;2969;-2564;-504;38;260
538221;1;7;0;930;-183;2918;-2504;-551;-75;139
538231;1;7;0;930;-197;2917;-2513;-588;-216;-66
538241;1;7;0;930;-254;2956;-2584;-583;-366;-266
538251;1;7;0;930;-319;3040;-2648;-567;-466;-420
538261;1;7;0;930;-377;3138;-2708;-516;-447;-487
538271;1;7;0;930;-364;3195;-2724;-494;-311;-505
538281;1;7;0;930;-336;3222;-2732;-469;-114;-459
538291;1;7;0;930;-356;3220;-2709;-459;14;-390
538301;1;7;0;930;-376;3166;-2612;-452;61;-290
538311;1;7;0;930;-366;3144;-2576;-456;44;-247
538321;1;7;0;930;-331;3132;-2569;-437;32;-217
538331;1;7;0;930;-239;3151;-2575;-401;43;-196
538341;1;7;0;930;-300;3163;-2622;-352;68;-128
538351;1;7;0;930;-348;3150;-2628;-342;61;-14
538361;1;7;0;930;-354;3148;-2615;-334;30;43
538371;1;7;0;930;-298;3174;-2594;-322;12;16
538381;1;7;0;930;-283;3172;-2538;-301;9;-31
538391;1;7;0;930;-314;3163;-2473;-276;-61;-11
538401;1;7;0;930;-339;3179;-2458;-275;-177;83
538411;1;7;0;930;-347;3224;-2590;-219;-385;189
538421;1;7;0;930;-263;3149;-2415;-330;-334;210
538431;1;7;0;930;-208;3157;-2421;-345;-276;268
538441;1;7;0;930;-216;3117;-2444;-319;-341;264
538451;1;7;0;930;-227;3121;-2511;-259;-449;205
538461;1;7;0;930;-231;3157;-2596;-152;-504;164
538471;1;7;0;930;-204;3196;-2671;-24;-464;27
538481;1;7;0;930;-170;3224;-2678;74;-348;-65
538491;1;7;0;930;-205;3206;-2701;107;-315;-29
538501;1;7;0;930;-260;3240;-2724;62;-373;80
538511;1;7;0;930;-260;3264;-2699;-39;-460;180
538521;1;7;0;930;-197;3223;-2669;-150;-495;287
538531;1;7;0;930;-160;3196;-2640;-205;-527;306
538541;1;7;0;930;-155;3160;-2638;-213;-528;320
538551;1;7;0;930;-131;3147;-2618;-212;-518;298
538561;1;7;0;930;-101;3108;-2650;-172;-450;294
538571;1;7;0;930;-38;3079;-2675;-98;-349;300
538581;1;7;0;930;36;3055;-2713;-43;-213;270
538591;1;7;0;931;81;3028;-2732;13;-74;161
538601;1;7;0;931;63;3005;-2772;34;32;-18
538611;1;7;0;931;53;3015;-2808;36;88;-226
538621;1;7;0;931;79;3071;-2827;-11;162;-423
538631;1;7;0;931;84;3061;-2795;-61;270;-577
538641;1;7;0;931;11;3077;-2766;-101;338;-689
538651;1;7;0;931;-30;3113;-2725;-124;352;-748
538661;1;7;0;931;-89;3112;-2686;-163;371;-822
538671;1;7;0;931;-166;3108;-2659;-204;349;-876
538681;1;7;0;931;-234;3112;-2602;-214;341;-907
538691;1;7;0;931;-258;3134;-2552;-193;349;-891
538701;1;7;0;931;-274;3173;-2541;-178;365;-832
538711;1;7;0;931;-263;3247;-2520;-170;331;-756
538721;1;7;0;931;-244;3280;-2528;-181;288;-670
538731;1;7;0;931;-216;3290;-2509;-210;259;-566
538741;1;7;0;931;-219;3286;-2474;-218;227;-474
538751;1;7;0;931;-192;3226;-2432;-202;188;-427
538761;1;7;0;931;-191;3198;-2422;-159;127;-470
538771;1;7;0;931;-214;3210;-2426;-135;59;-519
538781;1;7;0;931;-216;3235;-2477;-122;-9;-559
538791;1;7;0;931;-232;3298;-2552;-85;-58;-555
538801;1;7;0;931;-229;3363;-2571;-71;-43;-489
538811;1;7;0;931;-206;3348;-2560;-16;47;-377
538821;1;7;0;931;-186;3295;-2497;133;89;-288
538831;1;7;0;931;-171;3234;-2506;99;248;-171
538841;1;7;0;931;-150;3195;-2496;102;224;-201
538851;1;7;0;931;-165;3157;-2488;64;124;-318
538861;1;7;0;931;-183;3148;-2498;16;-7;-451
538871;1;7;0;931;-213;3138;-2522;-27;-144;-568
538881;1;7;0;931;-243;3140;-2581;-45;-227;-651
538891;1;7;0;931;-318;3148;-2622;-41;-294;-733
538901;1;7;0;931;-427;3204;-2668;-68;-318;-770
538911;1;7;0;931;-471;3222;-2678;-102;-307;-775
538921;1;7;0;931;-480;3209;-2651;-117;-294;-774
538931;1;7;0;931;-498;3214;-2639;-158;-290;-760
538941;1;7;0;931;-476;3188;-2627;-193;-284;-709
538951;1;7;0;931;-485;3140;-2589;-215;-297;-647
538961;1;7;0;931;-467;3116;-2563;-243;-306;-559
538971;1;7;0;931;-439;3142;-2544;-267;-320;-485
538981;1;7;0;931;-410;3169;-2578;-266;-338;-425
538991;1;7;0;931;-422;3171;-2589;-244;-332;-379
539001;1;7;0;931;-438;3150;-2607;-213;-277;-319
539011;1;7;0;931;-448;3109;-2573;-199;-195;-234
539021;1;7;0;931;-391;3092;-2527;-244;-138;-181
539031;1;7;0;931;-370;3007;-2487;-317;-149;-182
539041;1;7;0;931;-370;2975;-2469;-410;-209;-220
539051;1;7;0;931;-382;2990;-2500;-536;-313;-314
539061;1;7;0;931;-405;3035;-2496;-609;-492;-411
539071;1;7;0;931;-423;3069;-2488;-636;-703;-493
539081;1;7;0;931;-451;3079;-2464;-614;-823;-516
539091;1;7;0;932;-520;3088;-2441;-501;-902;-532
539101;1;7;0;932;-547;3129;-2435;-357;-940;-543
539111;1;7;0;932;-554;3197;-2466;-198;-923;-559
539121;1;7;0;932;-566;3206;-2593;-77;-893;-510
539131;1;7;0;932;-537;3179;-2679;-11;-848;-367
539141;1;7;0;932;-488;3102;-2641;-2;-781;-246
539151;1;7;0;932;-431;2999;-2586;-7;-720;-237
539161;1;7;0;932;-418;2925;-2545;32;-712;-341
539171;1;7;0;932;-457;2874;-2529;81;-762;-530
539181;1;7;0;932;-549;2844;-2509;91;-809;-736
539191;1;7;0;932;-624;2819;-2496;75;-870;-910
539201;1;7;0;932;-665;2849;-2534;39;-902;-1011
539211;1;7;0;932;-687;2908;-2545;3;-935;-1025
539221;1;7;0;932;-693;2990;-2618;-29;-938;-969
539231;1;7;0;932;-695;3046;-2733;-86;-896;-868
539241;1;7;0;932;-716;3055;-2763;-184;-744;-763
539251;1;7;0;932;-735;2944;-2686;-272;-546;-669
539261;1;7;0;932;-798;2818;-2530;-333;-438;-665
539271;1;7;0;932;-821;2690;-2327;-393;-471;-760
539281;1;7;0;932;-808;2541;-2135;-470;-689;-938
539291;1;7;0;932;-839;2515;-2004;-537;-1008;-1125
539301;1;7;0;932;-851;2596;-2044;-592;-1394;-1210
539311;1;7;0;932;-811;2692;-2177;-693;-1697;-1068
539321;1;7;0;932;-754;2834;-2242;-722;-1855;-803
539331;1;7;0;932;-751;2961;-2295;-670;-1861;-462
539341;1;7;0;932;-771;2967;-2323;-572;-1730;-146
539351;1;7;0;932;-709;2898;-2324;-489;-1526;-16
539361;1;7;0;932;-640;2711;-2331;-467;-1317;-132
539371;1;7;0;932;-641;2430;-2272;-539;-1225;-500
539381;1;7;0;932;-784;2303;-2189;-694;-1405;-1041
539391;1;7;0;932;-867;2346;-2134;-830;-1607;-1349
539401;1;7;0;932;-945;2586;-2081;-1018;-1867;-1497
539411;1;7;0;932;-952;2736;-2066;-1086;-2028;-1323
539421;1;7;0;932;-753;2986;-2233;-1055;-1823;-774
539431;1;7;0;932;-517;2922;-2369;-955;-1262;-165
539441;1;7;0;932;-348;2760;-2556;-737;-565;173
539451;1;7;0;932;-204;2582;-2711;-468;3;94
539461;1;7;0;932;-205;2554;-2827;-157;203;-442
539471;1;7;0;932;-448;2479;-2781;-98;-127;-1207
539481;1;7;0;932;-729;2560;-2656;-247;-717;-1966
539491;1;7;0;932;-996;2648;-2410;-588;-1285;-2434
539501;1;7;0;932;-1134;2747;-2192;-834;-1535;-2435
539511;1;7;0;932;-1187;2842;-2106;-808;-1447;-2067
539521;1;7;0;932;-1074;2896;-2171;-591;-1094;-1509
539531;1;7;0;932;-971;2912;-2278;-359;-787;-1005
539541;1;7;0;932;-892;3088;-2475;-220;-687;-574
539551;1;7;0;932;-835;3265;-2666;-195;-588;-310
539561;1;7;0;932;-784;3453;-2805;-319;-559;-249
539571;1;7;0;932;-826;3419;-2856;-634;-564;-179
539581;1;7;0;932;-877;3202;-2691;-902;-612;-71
539591;1;7;0;933;-928;2965;-2449;-994;-431;44
539601;1;7;0;933;-929;2709;-2191;-940;-80;94
539611;1;7;0;933;-959;2599;-2053;-701;228;52
539621;1;7;0;933;-1064;2579;-2094;-496;331;-8
539631;1;7;0;933;-1080;2778;-2283;-430;175;-55
539641;1;7;0;933;-999;3018;-2534;-557;-116;-184
539651;1;7;0;933;-861;3120;-2509;-862;-346;-242
539661;1;7;0;933;-758;2911;-2271;-1021;-318;-240
539671;1;7;0;933;-615;2599;-2007;-998;-82;-113
539681;1;7;0;933;-463;2274;-1837;-836;77;-156
539691;1;7;0;933;-451;2023;-1810;-644;59;-401
539701;1;7;0;933;-590;2070;-1905;-554;-203;-838
539711;1;7;0;933;-771;2361;-2053;-672;-676;-1309
539721;1;7;0;933;-964;2708;-2095;-800;-1147;-1628
539731;1;7;0;933;-1184;3167;-2132;-825;-1491;-1699
539741;1;7;0;933;-1451;3461;-2000;-859;-1659;-1349
539751;1;7;0;933;-1515;3589;-1786;-971;-1700;-623
539761;1;7;0;933;-1454;3313;-1524;-1041;-1615;190
539771;1;7;0;933;-1169;3120;-1487;-1114;-1482;876
539781;1;7;0;933;-1083;2990;-1602;-1153;-1586;1205
539791;1;7;0;933;-753;2989;-2119;-1142;-1683;1185
539801;1;7;0;933;-846;3132;-2535;-1079;-1851;892
539811;1;7;0;933;-1003;3289;-2827;-1088;-1954;613
539821;1;7;0;933;-1195;3305;-2796;-1162;-1909;379
539831;1;7;0;933;-1256;3173;-2501;-1144;-1731;40
539841;1;7;0;933;-1265;2991;-2141;-1066;-1497;-234
539851;1;7;0;933;-1328;3075;-1834;-990;-1566;-506
539861;1;7;0;933;-1305;3208;-1600;-1064;-1735;-556
539871;1;7;0;933;-1425;3633;-1481;-1257;-2402;-321
539881;1;7;0;933;-1642;4057;-1520;-1565;-3230;86
539891;1;7;0;933;-1446;4464;-1787;-1917;-3850;779
539901;1;7;0;933;-1350;4425;-1981;-2051;-4110;1654
539911;1;7;0;933;-1131;4141;-2257;-2005;-3925;2369
539921;1;7;0;933;-820;3667;-2412;-1689;-3448;2369
539931;1;7;0;933;-752;3314;-2537;-1380;-3040;1701
539941;1;7;0;933;-840;3269;-2754;-983;-2631;684
539951;1;7;0;933;-1142;3479;-2798;-855;-2453;-175
539961;1;7;0;933;-1520;3676;-2629;-788;-2571;-389
539971;1;7;0;933;-1683;3661;-2428;-711;-2455;-35
539981;1;7;0;933;-1670;3469;-2248;-543;-1891;547
539991;1;7;0;933;-1474;3216;-2295;-267;-1089;806
540001;1;7;0;933;-1251;3088;-2498;119;-426;489
540011;1;7;0;933;-1278;3129;-2672;468;-239;-170
540021;1;7;0;933;-1618;3385;-2829;710;-463;-794
540031;1;7;0;933;-1710;3832;-2808;803;-795;-1068
540041;1;7;0;933;-1703;4029;-2561;784;-950;-964
540051;1;7;0;933;-1637;4057;-2349;722;-760;-564
540061;1;7;0;933;-1496;3897;-2028;684;-594;-16
540071;1;7;0;933;-1491;3639;-1994;693;-193;335
540081;1;7;0;933;-1482;3480;-1945;709;-85;478
540091;1;7;0;934;-1552;3484;-2062;625;-292;570
540101;1;7;0;934;-1546;3657;-2207;476;-515;670
540111;1;7;0;934;-1408;3919;-2329;365;-694;795
540121;1;7;0;934;-1325;4117;-2337;275;-702;995
540131;1;7;0;934;-1367;4152;-2160;235;-568;1145
540141;1;7;0;934;-1426;4044;-2094;196;-352;1261
540151;1;7;0;934;-1494;3766;-2109;197;-76;1256
540161;1;7;0;934;-1510;3612;-2121;180;109;1044
540171;1;7;0;934;-1520;3542;-2172;122;180;652
540181;1;7;0;934;-1489;3598;-2180;77;130;259
540191;1;7;0;934;-1438;3721;-2146;65;22;67
540201;1;7;0;934;-1355;3814;-2143;65;93;140
540211;1;7;0;934;-1325;3816;-2110;112;222;417
540221;1;7;0;934;-1353;3690;-2136;197;324;742
540231;1;7;0;934;-1454;3647;-2152;345;342;1000
540241;1;7;0;934;-1466;3706;-2211;488;318;1140
540251;1;7;0;934;-1422;3796;-2321;550;377;1131
540261;1;7;0;934;-1290;3820;-2314;551;528;1023
540271;1;7;0;934;-1178;3746;-2237;537;737;848
540281;1;7;0;934;-1128;3499;-2161;531;960;628
540291;1;7;0;934;-1109;3373;-2121;585;1058;433
540301;1;7;0;934;-1105;3304;-2101;652;1073;357
540311;1;7;0;934;-1151;3399;-2087;670;1010;414
540321;1;7;0;934;-1164;3546;-2111;599;960;651
540331;1;7;0;934;-1137;3650;-2155;509;986;939
540341;1;7;0;934;-1084;3685;-2176;491;1115;1142
540351;1;7;0;934;-1004;3614;-2156;555;1329;1265
540361;1;7;0;934;-906;3422;-2116;678;1565;1282
540371;1;7;0;934;-833;3166;-2118;816;1708;1196
540381;1;7;0;934;-795;2973;-2095;923;1682;1022
540391;1;7;0;934;-814;2887;-2128;953;1567;791
540401;1;7;0;934;-896;2936;-2181;893;1390;608
540411;1;7;0;934;-1023;3181;-2222;736;1167;583
540421;1;7;0;934;-1061;3302;-2243;679;1099;643
540431;1;7;0;934;-1085;3473;-2280;632;1102;813
540441;1;7;0;934;-1059;3555;-2337;656;1196;995
540451;1;7;0;934;-981;3574;-2362;750;1327;1112
540461;1;7;0;934;-855;3544;-2379;852;1447;1122
540471;1;7;0;934;-748;3467;-2391;926;1512;1019
540481;1;7;0;934;-738;3396;-2396;980;1506;846
540491;1;7;0;934;-741;3362;-2425;964;1461;660
540501;1;7;0;934;-829;3349;-2447;864;1380;521
540511;1;7;0;934;-889;3393;-2438;755;1310;482
540521;1;7;0;934;-904;3443;-2431;656;1315;491
540531;1;7;0;934;-927;3450;-2392;627;1374;489
540541;1;7;0;934;-894;3433;-2356;627;1447;495
540551;1;7;0;934;-817;3403;-2308;596;1508;496
540561;1;7;0;934;-779;3344;-2259;546;1510;486
540571;1;7;0;934;-742;3309;-2248;473;1434;504
540581;1;7;0;934;-713;3302;-2229;401;1311;520
540591;1;7;0;935;-705;3306;-2237;363;1239;576
540601;1;7;0;935;-720;3310;-2252;327;1202;669
540611;1;7;0;935;-726;3300;-2277;309;1186;759
540621;1;7;0;935;-703;3280;-2292;297;1146;823
540631;1;7;0;935;-670;3258;-2303;318;1093;848
540641;1;7;0;935;-616;3243;-2319;346;1052;854
540651;1;7;0;935;-580;3243;-2309;381;1017;856
540661;1;7;0;935;-552;3240;-2336;420;985;844
540671;1;7;0;935;-593;3229;-2375;436;956;798
540681;1;7;0;935;-610;3245;-2410;429;866;744
540691;1;7;0;935;-597;3270;-2423;411;749;690
540701;1;7;0;935;-598;3325;-2436;334;653;634
540711;1;7;0;935;-563;3287;-2459;286;586;626
540721;1;7;0;935;-501;3223;-2451;266;584;636
540731;1;7;0;935;-483;3150;-2443;278;604;601
540741;1;7;0;935;-438;3112;-2446;298;608;527
540751;1;7;0;935;-421;3136;-2484;323;625;405
540761;1;7;0;935;-415;3170;-2512;358;680;296
540771;1;7;0;935;-398;3218;-2526;392;772;267
540781;1;7;0;935;-379;3244;-2545;393;887;306
540791;1;7;0;935;-337;3263;-2514;411;996;364
540801;1;7;0;935;-327;3260;-2500;413;1070;407
540811;1;7;0;935;-330;3240;-2498;399;1071;415
540821;1;7;0;935;-316;3203;-2514;350;1017;390
540831;1;7;0;935;-317;3175;-2501;333;957;346
540841;1;7;0;935;-331;3175;-2518;320;900;319
540851;1;7;0;935;-340;3160;-2547;309;893;310
540861;1;7;0;935;-316;3155;-2565;265;896;319
540871;1;7;0;935;-288;3156;-2561;242;913;316
540881;1;7;0;935;-242;3222;-2551;263;945;289
540891;1;7;0;935;-273;3252;-2572;296;949;226
540901;1;7;0;935;-277;3258;-2597;300;941;191
540911;1;7;0;935;-287;3268;-2537;288;899;230
540921;1;7;0;935;-234;3279;-2509;274;866;328
540931;1;7;0;935;-218;3259;-2469;260;868;443
540941;1;7;0;935;-163;3246;-2445;271;889;518
540951;1;7;0;935;-151;3216;-2460;314;905;538
540961;1;7;0;935;-146;3182;-2507;328;862;519
540971;1;7;0;935;-137;3130;-2567;339;809;489
540981;1;7;0;935;-122;3086;-2614;307;752;449
540991;1;7;0;935;-95;3051;-2649;293;735;385
541001;1;7;0;935;-73;3026;-2662;254;710;298
541011;1;7;0;935;-65;3028;-2654;228;697;187
541021;1;7;0;935;-95;3027;-2633;221;646;57
541031;1;7;0;935;-137;3050;-2615;201;585;-82
541041;1;7;0;935;-160;3102;-2608;166;545;-177
541051;1;7;0;935;-195;3150;-2602;127;482;-212
541061;1;7;0;935;-187;3232;-2566;86;414;-174
541071;1;7;0;935;-211;3288;-2580;60;334;-97
541081;1;7;0;935;-201;3317;-2556;35;225;27
541091;1;7;0;936;-194;3318;-2527;-16;114;149
541101;1;7;0;936;-200;3305;-2507;-48;-12;271
541111;1;7;0;936;-154;3224;-2527;-55;-116;390
541121;1;7;0;936;-114;3188;-2528;-88;-190;447
541131;1;7;0;936;-82;3112;-2560;-81;-225;448
541141;1;7;0;936;-48;2998;-2631;-94;-247;420
541151;1;7;0;936;-58;2933;-2659;-85;-235;326
541161;1;7;0;936;-58;2937;-2678;-82;-230;165
541171;1;7;0;936;-61;2963;-2692;-60;-225;-22
541181;1;7;0;936;-61;2998;-2677;-22;-210;-165
541191;1;7;0;936;-56;3070;-2639;-6;-190;-250
541201;1;7;0;936;-17;3124;-2627;36;-163;-293
541211;1;7;0;936;5;3138;-2599;47;-114;-266
541221;1;7;0;936;34;3116;-2566;5;-164;-226
541231;1;7;0;936;28;3082;-2601;-50;-279;-261
541241;1;7;0;936;-11;3073;-2628;-98;-413;-347
541251;1;7;0;936;-48;3086;-2714;-179;-587;-432
541261;1;7;0;936;-109;3094;-2739;-293;-724;-436
541271;1;7;0;936;-146;3110;-2783;-410;-809;-365
541281;1;7;0;936;-90;3135;-2800;-491;-811;-242
541291;1;7;0;936;-50;3100;-2775;-509;-724;-150
541301;1;7;0;936;20;2994;-2738;-474;-561;-120
541311;1;7;0;936;49;2924;-2710;-405;-392;-189
541321;1;7;0;936;50;2856;-2729;-326;-250;-398
541331;1;7;0;936;32;2854;-2787;-310;-201;-646
541341;1;7;0;936;-37;2885;-2826;-339;-298;-896
541351;1;7;0;936;-141;3062;-2861;-401;-517;-1064
541361;1;7;0;936;-172;3201;-2815;-568;-750;-1060
541371;1;7;0;936;-122;3293;-2717;-694;-838;-921
541381;1;7;0;936;-51;3245;-2601;-758;-796;-686
541391;1;7;0;936;6;3142;-2506;-801;-785;-474
541401;1;7;0;936;13;3058;-2452;-857;-940;-426
541411;1;7;0;936;12;3099;-2465;-956;-1247;-528
541421;1;7;0;936;-25;3188;-2535;-1068;-1615;-642
541431;1;7;0;936;-81;3222;-2640;-1197;-1960;-651
541441;1;7;0;936;-55;3206;-2755;-1269;-2120;-542
541451;1;7;0;936;69;3126;-2890;-1340;-2104;-326
541461;1;7;0;936;213;2925;-3036;-1391;-1879;-270
541471;1;7;0;936;285;2770;-3019;-1383;-1698;-537
541481;1;7;0;936;265;2748;-2978;-1370;-1670;-1055
541491;1;7;0;936;64;2803;-2853;-1377;-1925;-1729
541501;1;7;0;936;-234;3078;-2831;-1403;-2371;-2331
541511;1;7;0;936;-569;3356;-2873;-1517;-2828;-2736
541521;1;7;0;936;-708;3692;-2836;-1607;-3087;-2871
541531;1;7;0;936;-733;3856;-2885;-1602;-2942;-2681
541541;1;7;0;936;-725;3922;-2824;-1529;-2498;-2340
541551;1;7;0;936;-795;3896;-2695;-1413;-2097;-2056
541561;1;7;0;936;-819;3979;-2742;-1410;-1928;-1890
541571;1;7;0;936;-826;4059;-2828;-1585;-2036;-1938
541581;1;7;0;936;-845;4194;-2875;-1839;-2368;-1972
541591;1;7;0;937;-1006;4309;-2838;-2092;-2745;-1822
541601;1;7;0;937;-1237;4415;-2762;-2296;-2911;-1376
541611;1;7;0;937;-1308;4309;-2765;-2401;-2688;-704
541621;1;7;0;937;-1136;4054;-2787;-2329;-2015;-46
541631;1;7;0;937;-988;3940;-2785;-1958;-1089;263
541641;1;7;0;937;-848;3875;-2893;-1487;-214;70
541651;1;7;0;937;-805;4014;-2971;-1029;282;-492
541661;1;7;0;937;-897;4248;-2922;-599;519;-917
541671;1;7;0;937;-1045;4316;-2750;-393;606;-1091
541681;1;7;0;937;-1155;4405;-2792;-291;532;-974
541691;1;7;0;937;-1209;4355;-2757;-346;319;-562
541701;1;7;0;937;-1186;4197;-2752;-437;238;-117
541711;1;7;0;937;-1073;4042;-2777;-483;326;180
541721;1;7;0;937;-1000;3972;-2879;-472;427;187
541731;1;7;0;937;-1081;3998;-2959;-443;438;-12
541741;1;7;0;937;-1196;4176;-2926;-365;329;-249
541751;1;7;0;937;-1289;4305;-2850;-292;275;-403
541761;1;7;0;937;-1241;4420;-2792;-160;352;-381
541771;1;7;0;937;-1302;4444;-2726;-34;526;-206
541781;1;7;0;937;-1257;4395;-2698;89;620;-57
541791;1;7;0;937;-1098;4387;-2728;168;740;88
541801;1;7;0;937;-1026;4216;-2738;172;882;135
541811;1;7;0;937;-915;4047;-2766;251;1008;56
541821;1;7;0;937;-848;3916;-2701;391;1172;-196
541831;1;7;0;937;-830;3825;-2648;530;1283;-466
541841;1;7;0;937;-859;3641;-2600;648;1397;-883
541851;1;7;0;937;-880;3600;-2585;744;1455;-1077
541861;1;7;0;937;-946;3552;-2531;746;1545;-1198
541871;1;7;0;937;-995;3541;-2446;655;1508;-1062
541881;1;7;0;937;-1010;3569;-2441;583;1481;-914
541891;1;7;0;937;-998;3538;-2432;439;1502;-718
541901;1;7;0;937;-934;3449;-2407;380;1531;-445
541911;1;7;0;937;-838;3291;-2369;344;1614;-252
541921;1;7;0;937;-688;3097;-2324;384;1697;-108
541931;1;7;0;937;-650;2883;-2266;450;1774;-80
541941;1;7;0;937;-559;2752;-2263;493;1790;-144
541951;1;7;0;937;-534;2583;-2148;543;1841;-174
541961;1;7;0;937;-535;2527;-2034;571;1840;-215
541971;1;7;0;937;-566;2458;-1910;573;1830;-136
541981;1;7;0;937;-511;2310;-1733;579;1672;-91
541991;1;7;0;937;-402;2466;-1659;487;1805;116
542001;1;7;0;937;-458;2306;-1604;477;1748;317
542011;1;7;0;937;-534;2102;-1555;428;1680;546
542021;1;7;0;937;-326;2082;-1583;464;1463;673
542031;1;7;0;937;-507;2080;-1525;434;1414;535
542041;1;7;0;937;-557;2241;-1602;452;1112;367
542051;1;7;0;937;-637;2424;-1668;384;867;167
542061;1;7;0;937;-566;2558;-1806;302;637;52
542071;1;7;0;937;-476;2659;-1898;271;543;75
542081;1;7;0;937;-339;2621;-1947;334;626;171
542091;1;7;0;938;-228;2546;-1953;526;789;249
542101;1;7;0;938;-210;2505;-1959;822;943;268
542111;1;7;0;938;-242;2522;-1947;1094;1024;195
542121;1;7;0;938;-345;2640;-1957;1363;955;164
542131;1;7;0;938;-431;2744;-1919;1549;894;268
542141;1;7;0;938;-449;2861;-1960;1569;821;505
542151;1;7;0;938;-543;2894;-1963;1491;778;819
542161;1;7;0;938;-554;2871;-1976;1426;705;1062
542171;1;7;0;938;-481;2796;-1878;1626;767;1145
542181;1;7;0;938;-422;2557;-1917;1148;839;1340
542191;1;7;0;938;-357;2389;-1907;982;892;1302
542201;1;7;0;938;-258;2260;-1862;907;916;1235
542211;1;7;0;938;-231;2321;-1861;855;878;1123
542221;1;7;0;938;-225;2381;-1958;820;823;953
542231;1;7;0;938;-258;2544;-2062;786;761;717
542241;1;7;0;938;-346;2639;-2113;704;668;551
542251;1;7;0;938;-493;2635;-2114;562;583;487
542261;1;7;0;938;-578;2552;-2078;437;511;469
542271;1;7;0;938;-699;2490;-2045;307;444;375
542281;1;7;0;938;-725;2413;-2040;251;247;246
542291;1;7;0;938;-681;2414;-2090;186;33;-77
542301;1;7;0;938;-408;2635;-2186;181;-289;-375
542311;1;7;0;938;-391;2900;-2311;161;-296;-576
542321;1;7;0;938;-443;2900;-2442;234;-445;-682
542331;1;7;0;938;-487;3056;-2519;318;-476;-660
542341;1;7;0;938;-512;3148;-2607;278;-404;-653
542351;1;7;0;938;-550;3160;-2683;221;-298;-593
542361;1;7;0;938;-588;3205;-2706;191;-222;-473
542371;1;7;0;938;-611;3195;-2758;180;-130;-286
542381;1;7;0;938;-600;3166;-2723;294;81;-287
542391;1;7;0;938;-583;3122;-2739;173;79;-40
542401;1;7;0;938;-556;3053;-2803;165;71;175
542411;1;7;0;938;-438;3015;-2725;121;111;328
542421;1;7;0;938;-404;2988;-2713;57;110;421
542431;1;7;0;938;-415;2968;-2657;-58;131;492
542441;1;7;0;938;-457;2989;-2623;-137;96;531
542451;1;7;0;938;-479;3077;-2582;-239;-27;524
542461;1;7;0;938;-515;3122;-2590;-360;-121;431
542471;1;7;0;938;-527;3139;-2674;-447;-164;374
542481;1;7;0;938;-491;3100;-2748;-475;-175;381
542491;1;7;0;938;-469;3052;-2761;-440;-129;390
542501;1;7;0;938;-462;2988;-2690;-406;-32;294
542511;1;7;0;938;-413;2949;-2619;-328;64;138
542521;1;7;0;938;-381;2958;-2537;-235;96;-49
542531;1;7;0;938;-379;2994;-2533;-168;58;-258
542541;1;7;0;938;-411;3031;-2549;-111;-53;-420
542551;1;7;0;938;-521;3065;-2575;-86;-161;-488
542561;1;7;0;938;-579;3125;-2601;-62;-252;-512
542571;1;7;0;938;-604;3209;-2679;-94;-266;-413
542581;1;7;0;938;-513;3242;-2754;-134;-254;-254
542591;1;7;0;939;-354;3225;-2759;-165;-178;-11
542601;1;7;0;939;-325;3142;-2686;-159;-122;156
542611;1;7;0;939;-361;3097;-2607;-122;-85;255
542621;1;7;0;939;-384;3045;-2553;-101;-88;277
542631;1;7;0;939;-339;3030;-2552;-152;-112;209
542641;1;7;0;939;-301;3006;-2656;-247;-173;91
542651;1;7;0;939;-307;3013;-2726;-321;-238;-3
542661;1;7;0;939;-367;3043;-2761;-382;-261;-81
542671;1;7;0;939;-446;3079;-2716;-367;-232;-108
542681;1;7;0;939;-467;3129;-2678;-327;-153;-93
542691;1;7;0;939;-457;3133;-2678;-319;-69;-62
542701;1;7;0;939;-406;3143;-2632;-349;-42;-40
542711;1;7;0;939;-366;3079;-2612;-367;-45;-69
542721;1;7;0;939;-345;3033;-2577;-369;-49;-115
542731;1;7;0;939;-360;3065;-2601;-328;-62;-169
542741;1;7;0;939;-384;3090;-2597;-283;-99;-200
542751;1;7;0;939;-401;3129;-2626;-270;-160;-211
542761;1;7;0;939;-363;3180;-2648;-238;-185;-190
542771;1;7;0;939;-374;3128;-2712;-222;-117;-154
542781;1;7;0;939;-369;3143;-2759;-191;-67;-76
542791;1;7;0;939;-381;3132;-2711;-161;-11;31
542801;1;7;0;939;-366;3088;-2665;-148;10;53
542811;1;7;0;939;-355;3044;-2637;-173;-36;9
542821;1;7;0;939;-329;3026;-2627;-198;-130;-68
542831;1;7;0;939;-349;3050;-2621;-206;-233;-161
542841;1;7;0;939;-334;3093;-2632;-227;-267;-232
542851;1;7;0;939;-360;3133;-2641;-236;-265;-255
542861;1;7;0;939;-378;3165;-2629;-237;-211;-231
542871;1;7;0;939;-413;3109;-2646;-248;-162;-207
542881;1;7;0;939;-416;3104;-2615;-262;-155;-199
542891;1;7;0;939;-454;3095;-2565;-285;-192;-198
542901;1;7;0;939;-485;3117;-2505;-311;-264;-202
542911;1;7;0;939;-509;3143;-2496;-347;-354;-193
542921;1;7;0;939;-516;3148;-2530;-381;-420;-146
542931;1;7;0;939;-434;3139;-2601;-401;-443;-128
542941;1;7;0;939;-391;3154;-2644;-400;-406;-96
542951;1;7;0;939;-392;3094;-2627;-385;-335;-93
542961;1;7;0;939;-374;3077;-2611;-338;-293;-128
542971;1;7;0;939;-404;2994;-2570;-290;-249;-197
542981;1;7;0;939;-428;2941;-2495;-266;-261;-344
542991;1;7;0;939;-489;2951;-2511;-272;-359;-549
543001;1;7;0;939;-541;3012;-2564;-332;-509;-747
543011;1;7;0;939;-569;3145;-2559;-387;-649;-840
543021;1;7;0;939;-586;3191;-2509;-422;-709;-814
543031;1;7;0;939;-641;3209;-2499;-404;-724;-694
543041;1;7;0;939;-685;3233;-2464;-383;-734;-476
543051;1;7;0;939;-747;3177;-2396;-373;-758;-218
543061;1;7;0;939;-643;3075;-2398;-351;-730;-18
543071;1;7;0;939;-504;2964;-2404;-345;-685;45
543081;1;7;0;939;-495;2895;-2460;-365;-792;-52
543091;1;7;0;940;-498;2913;-2501;-436;-993;-228
543101;1;7;0;940;-527;2931;-2531;-506;-1250;-445
543111;1;7;0;940;-590;3034;-2520;-558;-1409;-629
543121;1;7;0;940;-676;3127;-2463;-614;-1498;-668
543131;1;7;0;940;-700;3186;-2371;-635;-1520;-579
543141;1;7;0;940;-706;3194;-2326;-618;-1496;-421
543151;1;7;0;940;-671;3152;-2280;-618;-1470;-213
543161;1;7;0;940;-591;3144;-2311;-578;-1436;-21
543171;1;7;0;940;-628;2974;-2380;-603;-1329;122
543181;1;7;0;940;-535;2833;-2342;-638;-1327;152
543191;1;7;0;940;-517;2711;-2269;-671;-1351;31
543201;1;7;0;940;-543;2596;-2168;-703;-1459;-230
543211;1;7;0;940;-614;2571;-2071;-720;-1658;-455
543221;1;7;0;940;-679;2572;-2009;-754;-1816;-613
543231;1;7;0;940;-728;2585;-1994;-811;-1976;-667
543241;1;7;0;940;-710;2636;-1973;-896;-2096;-608
543251;1;7;0;940;-722;2642;-2021;-974;-2159;-504
543261;1;7;0;940;-645;2681;-2041;-1066;-2177;-385
543271;1;7;0;940;-471;2658;-2075;-1134;-2004;-234
543281;1;7;0;940;-470;2424;-1940;-1146;-1726;-219
543291;1;7;0;940;-458;2286;-1810;-1111;-1581;-333
543301;1;7;0;940;-447;2261;-1681;-1041;-1575;-490
543311;1;7;0;940;-690;2444;-1560;-1074;-1827;-617
543321;1;7;0;940;-814;2613;-1562;-1218;-2154;-649
543331;1;7;0;940;-769;2750;-1836;-1288;-2490;-508
543341;1;7;0;940;-594;2908;-2195;-1294;-2517;-241
543351;1;7;0;940;-447;3105;-2477;-1259;-2332;-75
543361;1;7;0;940;-560;2970;-2516;-1236;-1950;-12
543371;1;7;0;940;-658;2787;-2467;-1160;-1599;-138
543381;1;7;0;940;-677;2548;-2297;-1118;-1373;-246
543391;1;7;0;940;-683;2419;-2116;-1083;-1306;-322
543401;1;7;0;940;-656;2393;-1904;-1119;-1339;-467
543411;1;7;0;940;-536;2522;-1852;-1185;-1331;-571
543421;1;7;0;940;-519;2775;-1930;-1276;-1248;-645
543431;1;7;0;940;-580;3010;-2137;-1502;-1413;-690
543441;1;7;0;940;-579;3208;-2318;-1726;-1618;-612
543451;1;7;0;940;-646;3278;-2416;-1979;-1744;-454
543461;1;7;0;940;-730;3111;-2321;-2137;-1687;-243
543471;1;7;0;940;-637;2821;-2119;-2088;-1431;-62
543481;1;7;0;940;-520;2465;-1925;-1781;-977;-29
543491;1;7;0;940;-462;2194;-1765;-1303;-651;-282
543501;1;7;0;940;-613;2232;-1757;-790;-638;-816
543511;1;7;0;940;-682;2649;-1874;-625;-881;-1427
543521;1;7;0;940;-858;3302;-2069;-725;-1215;-1932
543531;1;7;0;940;-1268;3888;-2263;-1029;-1622;-2031
543541;1;7;0;940;-1363;4344;-2400;-1423;-1854;-1583
543551;1;7;0;940;-1222;4283;-2333;-1715;-1532;-705
543561;1;7;0;940;-1138;3683;-2003;-1620;-893;156
543571;1;7;0;940;-983;2956;-1808;-1163;-88;641
543581;1;7;0;940;-585;2387;-1904;-594;333;362
543591;1;7;0;941;-355;2165;-2124;-192;257;-420
543601;1;7;0;941;-519;2374;-2357;50;-134;-1437
543611;1;7;0;941;-846;2935;-2549;56;-641;-2107
543621;1;7;0;941;-1166;3510;-2697;-220;-943;-2354
543631;1;7;0;941;-1468;4041;-2706;-599;-952;-2002
543641;1;7;0;941;-1462;4345;-2527;-1010;-668;-1150
543651;1;7;0;941;-1242;4262;-2202;-1283;56;-130
543661;1;7;0;941;-1020;3971;-1902;-1179;804;472
543671;1;7;0;941;-862;3713;-1644;-801;1107;535
543681;1;7;0;941;-849;3691;-1688;-507;924;168
543691;1;7;0;941;-778;3857;-1919;-313;395;-191
543701;1;7;0;941;-951;3915;-2080;-261;-70;-372
543711;1;7;0;941;-1067;3794;-2307;-328;-254;-103
543721;1;7;0;941;-1097;3506;-2297;-658;-67;352
543731;1;7;0;941;-1147;3057;-2327;-834;233;633
543741;1;7;0;941;-1040;2847;-2408;-767;413;527
543751;1;7;0;941;-969;2970;-2508;-600;364;-40
543761;1;7;0;941;-997;3305;-2441;-459;109;-773
543771;1;7;0;941;-1228;3842;-2381;-392;-84;-1363
543781;1;7;0;941;-1462;4337;-2277;-468;-109;-1603
543791;1;7;0;941;-1674;4634;-2124;-651;-9;-1267
543801;1;7;0;941;-1792;4549;-2030;-868;95;-607
543811;1;7;0;941;-1717;4165;-1940;-911;69;64
543821;1;7;0;941;-1553;3744;-2012;-755;-68;438
543831;1;7;0;941;-1296;3476;-2133;-544;-304;540
543841;1;7;0;941;-1131;3374;-2283;-332;-531;460
543851;1;7;0;941;-1049;3449;-2333;-182;-704;380
543861;1;7;0;941;-1052;3674;-2351;-205;-663;294
543871;1;7;0;941;-1194;3764;-2213;-301;-577;283
543881;1;7;0;941;-1262;3704;-2057;-333;-462;365
543891;1;7;0;941;-1304;3555;-1985;-215;-357;455
543901;1;7;0;941;-1236;3400;-1991;18;-231;433
543911;1;7;0;941;-1257;3334;-2140;176;-290;230
543921;1;7;0;941;-1327;3501;-2212;303;-480;-37
543931;1;7;0;941;-1606;3904;-2230;272;-700;-233
543941;1;7;0;941;-1698;4317;-2268;47;-883;-118
543951;1;7;0;941;-1660;4520;-2258;-208;-981;348
543961;1;7;0;941;-1592;4492;-2253;-336;-823;925
543971;1;7;0;941;-1518;4335;-2397;-284;-592;1220
543981;1;7;0;941;-1475;4122;-2612;-88;-365;1215
543991;1;7;0;941;-1503;4076;-2884;197;-190;909
544001;1;7;0;941;-1654;4206;-2989;397;-114;498
544011;1;7;0;941;-1758;4465;-3003;617;-28;22
544021;1;7;0;941;-1749;4747;-2832;860;173;-223
544031;1;7;0;941;-1693;4834;-2535;1076;627;-145
544041;1;7;0;941;-1388;4560;-2342;1236;1210;229
544051;1;7;0;941;-1127;4087;-2136;1302;1718;762
544061;1;7;0;941;-1011;3516;-1881;1212;1759;1065
544071;1;7;0;941;-891;3143;-1836;1085;1369;1078
544081;1;7;0;941;-930;2905;-2028;714;659;820
544091;1;7;0;942;-877;2905;-2142;325;111;556
544101;1;7;0;942;-891;3016;-2183;142;-6;413
544111;1;7;0;942;-906;3170;-2076;66;60;363
544121;1;7;0;942;-816;3358;-2022;51;105;345
544131;1;7;0;942;-844;3327;-1924;52;166;377
544141;1;7;0;942;-894;3224;-1814;70;122;546
544151;1;7;0;942;-899;3199;-1828;61;151;741
544161;1;7;0;942;-852;3084;-1883;68;269;958
544171;1;7;0;942;-845;2981;-2003;132;438;1064
544181;1;7;0;942;-859;3035;-2083;244;565;1068
544191;1;7;0;942;-838;3165;-2209;323;632;956
544201;1;7;0;942;-786;3298;-2247;331;701;844
544211;1;7;0;942;-807;3351;-2192;365;790;764
544221;1;7;0;942;-840;3320;-2137;395;864;709
544231;1;7;0;942;-871;3253;-2071;403;937;705
544241;1;7;0;942;-842;3220;-2061;411;964;698
544251;1;7;0;942;-834;3232;-2121;548;1054;680
544261;1;7;0;942;-838;3272;-2200;507;995;691
544271;1;7;0;942;-880;3375;-2263;522;997;704
544281;1;7;0;942;-857;3481;-2257;489;959;725
544291;1;7;0;942;-839;3555;-2212;449;885;731
544301;1;7;0;942;-837;3621;-2186;390;776;744
544311;1;7;0;942;-779;3581;-2194;340;703;814
544321;1;7;0;942;-745;3532;-2193;302;680;965
544331;1;7;0;942;-648;3436;-2246;288;695;1103
544341;1;7;0;942;-536;3330;-2257;398;816;1128
544351;1;7;0;942;-474;3274;-2256;409;870;1130
544361;1;7;0;942;-519;3289;-2248;497;927;1037
544371;1;7;0;942;-606;3340;-2247;563;914;925
544381;1;7;0;942;-608;3411;-2260;573;855;857
544391;1;7;0;942;-634;3439;-2268;553;834;856
544401;1;7;0;942;-631;3439;-2259;466;731;980
544411;1;7;0;942;-564;3392;-2277;422;665;1112
544421;1;7;0;942;-495;3323;-2314;432;638;1196
544431;1;7;0;942;-416;3236;-2310;508;634;1216
544441;1;7;0;942;-454;3187;-2321;586;658;1150
544451;1;7;0;942;-431;3204;-2341;626;647;1004
544461;1;7;0;942;-440;3265;-2375;637;644;845
544471;1;7;0;942;-466;3300;-2398;621;647;716
544481;1;7;0;942;-526;3319;-2398;589;655;663
544491;1;7;0;942;-546;3341;-2391;520;640;670
544501;1;7;0;942;-521;3358;-2382;441;598;714
544511;1;7;0;942;-475;3362;-2394;360;552;789
544521;1;7;0;942;-392;3340;-2376;305;521;873
544531;1;7;0;942;-353;3304;-2367;291;511;896
544541;1;7;0;942;-367;3289;-2379;309;505;842
544551;1;7;0;942;-376;3331;-2431;279;508;748
544561;1;7;0;942;-394;3324;-2453;210;481;674
544571;1;7;0;942;-406;3322;-2450;160;442;635
544581;1;7;0;942;-404;3301;-2376;131;407;583
544591;1;7;0;943;-412;3263;-2342;136;365;496
544601;1;7;0;943;-364;3256;-2339;136;322;404
544611;1;7;0;943;-314;3285;-2327;151;281;378
544621;1;7;0;943;-323;3321;-2304;185;225;389
544631;1;7;0;943;-310;3331;-2334;220;158;416
544641;1;7;0;943;-270;3360;-2412;242;113;473
544651;1;7;0;943;-263;3323;-2461;252;103;513
544661;1;7;0;943;-200;3272;-2524;258;121;540
544671;1;7;0;943;-203;3192;-2537;247;144;482
544681;1;7;0;943;-213;3152;-2531;237;169;367
544691;1;7;0;943;-221;3178;-2513;219;204;248
544701;1;7;0;943;-242;3201;-2513;207;259;126
544711;1;7;0;943;-238;3242;-2550;181;303;62
544721;1;7;0;943;-229;3253;-2489;170;313;36
544731;1;7;0;943;-232;3278;-2453;147;301;-3
544741;1;7;0;943;-240;3343;-2415;132;247;4
544751;1;7;0;943;-221;3386;-2427;97;171;41
544761;1;7;0;943;-192;3372;-2450;74;113;100
544771;1;7;0;943;-187;3363;-2435;92;88;150
544781;1;7;0;943;-172;3296;-2444;149;116;190
544791;1;7;0;943;-174;3222;-2439;198;129;182
544801;1;7;0;943;-219;3184;-2468;227;102;91
544811;1;7;0;943;-197;3153;-2455;187;71;-48
544821;1;7;0;943;-167;3174;-2477;144;42;-160
544831;1;7;0;943;-152;3175;-2460;115;27;-255
544841;1;7;0;943;-179;3192;-2467;86;14;-305
544851;1;7;0;943;-233;3180;-2470;26;-38;-338
544861;1;7;0;943;-274;3162;-2452;-55;-115;-352
544871;1;7;0;943;-291;3145;-2437;-125;-170;-382
544881;1;7;0;943;-271;3168;-2444;-156;-205;-427
544891;1;7;0;943;-243;3191;-2436;-172;-212;-456
544901;1;7;0;943;-213;3186;-2442;-168;-222;-487
544911;1;7;0;943;-216;3164;-2457;-156;-241;-512
544921;1;7;0;943;-222;3166;-2493;-166;-256;-529
544931;1;7;0;943;-231;3195;-2490;-214;-271;-571
544941;1;7;0;943;-225;3189;-2477;-248;-298;-614
544951;1;7;0;943;-252;3175;-2498;-290;-313;-670
544961;1;7;0;943;-278;3171;-2490;-313;-348;-724
544971;1;7;0;943;-292;3199;-2482;-321;-411;-765
544981;1;7;0;943;-282;3184;-2463;-380;-478;-804
544991;1;7;0;943;-297;3179;-2453;-432;-556;-834
545001;1;7;0;943;-301;3162;-2445;-493;-665;-876
545011;1;7;0;943;-310;3158;-2424;-522;-759;-950
545021;1;7;0;943;-329;3183;-2452;-538;-868;-1035
545031;1;7;0;943;-304;3210;-2504;-573;-963;-1073
545041;1;7;0;943;-222;3215;-2562;-640;-963;-1079
545051;1;7;0;943;-158;3201;-2549;-687;-996;-1091
545061;1;7;0;943;-157;3168;-2491;-706;-1046;-1177
545071;1;7;0;943;-132;3181;-2526;-739;-1162;-1380
545081;1;7;0;943;-159;3244;-2561;-722;-1292;-1570
545091;1;7;0;944;-249;3321;-2613;-734;-1394;-1710
545101;1;7;0;944;-351;3401;-2738;-761;-1472;-1789
545111;1;7;0;944;-359;3497;-2780;-767;-1557;-1734
545121;1;7;0;944;-344;3462;-2709;-772;-1450;-1597
545131;1;7;0;944;-357;3404;-2563;-729;-1363;-1491
545141;1;7;0;944;-273;3390;-2505;-591;-1293;-1536
545151;1;7;0;944;-269;3447;-2494;-475;-1327;-1858
545161;1;7;0;944;-318;3612;-2571;-350;-1585;-2386
545171;1;7;0;944;-412;3777;-2809;-336;-1898;-2933
545181;1;7;0;944;-617;3852;-2961;-436;-2328;-3189
545191;1;7;0;944;-1032;3770;-2930;-602;-2805;-3030
545201;1;7;0;944;-1343;3795;-2874;-725;-3234;-2733
545211;1;7;0;944;-1461;3820;-2766;-751;-3460;-2529
545221;1;7;0;944;-1317;3913;-2617;-781;-3421;-2461
545231;1;7;0;944;-1253;3931;-2536;-754;-3279;-2384
545241;1;7;0;944;-1171;3987;-2535;-658;-3119;-2236
545251;1;7;0;944;-1086;4080;-2561;-553;-2983;-2071
545261;1;7;0;944;-1024;4177;-2745;-432;-2852;-1823
545271;1;7;0;944;-1000;4186;-3021;-327;-2563;-1528
545281;1;7;0;944;-1105;4078;-3221;-288;-2062;-1206
545291;1;7;0;944;-1173;3982;-3223;-307;-1391;-963
545301;1;7;0;944;-1220;3876;-3146;-364;-621;-857
545311;1;7;0;944;-1353;3728;-3033;-291;186;-909
545321;1;7;0;944;-1423;3626;-2954;-334;1074;-1196
545331;1;7;0;944;-1468;3636;-2752;-368;1363;-1216
545341;1;7;0;944;-1463;3703;-2591;-354;1348;-1219
545351;1;7;0;944;-1455;3718;-2575;-308;1045;-1083
545361;1;7;0;944;-1537;3743;-2607;-225;680;-1013
545371;1;7;0;944;-1636;3951;-2640;-216;305;-963
545381;1;7;0;944;-1699;4210;-2739;-351;113;-801
545391;1;7;0;944;-1719;4393;-2768;-541;165;-546
545401;1;7;0;944;-1777;4394;-2747;-677;403;-285
545411;1;7;0;944;-1639;4384;-2734;-641;760;-89
545421;1;7;0;944;-1643;4245;-2711;-513;1169;-33
545431;1;7;0;944;-1496;4150;-2665;-272;1415;-74
545441;1;7;0;944;-1379;4069;-2631;-70;1560;-181
545451;1;7;0;944;-1325;3959;-2636;134;1614;-293
545461;1;7;0;944;-1277;3872;-2661;405;1640;-391
545471;1;7;0;944;-1255;3740;-2703;496;1534;-279
545481;1;7;0;944;-1235;3609;-2734;549;1414;-119
545491;1;7;0;944;-1205;3486;-2758;573;1323;49
545501;1;7;0;944;-1182;3432;-2784;573;1289;177
545511;1;7;0;944;-1173;3405;-2808;533;1320;272
545521;1;7;0;944;-1172;3394;-2783;486;1332;354
545531;1;7;0;944;-1205;3346;-2747;438;1325;393
545541;1;7;0;944;-1197;3345;-2743;383;1240;430
545551;1;7;0;944;-1135;3378;-2681;319;1216;506
545561;1;7;0;944;-1096;3372;-2648;318;1250;622
545571;1;7;0;944;-947;3326;-2578;320;1369;774
545581;1;7;0;944;-856;3274;-2476;386;1523;985
545591;1;7;0;945;-699;3138;-2416;482;1734;1171
545601;1;7;0;945;-610;2948;-2321;658;1947;1269
545611;1;7;0;945;-730;2836;-2232;803;2106;1216
545621;1;7;0;945;-654;2687;-2194;865;2202;1141
545631;1;7;0;945;-625;2530;-2109;850;2212;1152
545641;1;7;0;945;-617;2381;-2056;817;2199;1145
545651;1;7;0;945;-674;2312;-2029;772;2057;994
545661;1;7;0;945;-662;2354;-1950;703;1833;930
545671;1;7;0;945;-673;2332;-1887;561;1643;887
545681;1;7;0;945;-657;2308;-1820;410;1484;840
545691;1;7;0;945;-563;2210;-1744;323;1439;794
545701;1;7;0;945;-487;2170;-1705;343;1386;813
545711;1;7;0;945;-489;2095;-1670;430;1433;840
545721;1;7;0;945;-457;2092;-1696;569;1421;794
545731;1;7;0;945;-471;2170;-1741;648;1376;681
545741;1;7;0;945;-495;2256;-1820;607;1241;509
545751;1;7;0;945;-612;2263;-1841;448;1084;312
545761;1;7;0;945;-436;2438;-1968;319;969;268
545771;1;7;0;945;-440;2568;-1850;228;1047;380
545781;1;7;0;945;-548;2494;-1748;206;1222;539
545791;1;7;0;945;-581;2369;-1707;250;1292;721
545801;1;7;0;945;-526;2214;-1744;402;1324;847
545811;1;7;0;945;-420;2091;-1766;573;1336;929
545821;1;7;0;945;-428;2095;-1826;706;1230;817
545831;1;7;0;945;-445;2157;-1865;746;1065;618
545841;1;7;0;945;-488;2308;-1859;740;940;507
545851;1;7;0;945;-714;2444;-1813;652;846;553
545861;1;7;0;945;-817;2551;-1849;512;725;651
545871;1;7;0;945;-679;2674;-1968;351;622;771
545881;1;7;0;945;-600;2729;-2034;202;594;763
545891;1;7;0;945;-577;2703;-2108;108;610;650
545901;1;7;0;945;-559;2655;-2165;124;624;528
545911;1;7;0;945;-537;2641;-2191;202;626;398
545921;1;7;0;945;-542;2658;-2224;305;609;270
545931;1;7;0;945;-608;2692;-2271;388;525;129
545941;1;7;0;945;-680;2733;-2301;442;421;74
545951;1;7;0;945;-773;2830;-2312;415;317;140
545961;1;7;0;945;-802;2908;-2370;323;206;324
545971;1;7;0;945;-709;2982;-2403;200;103;484
545981;1;7;0;945;-607;3051;-2442;95;56;558
545991;1;7;0;945;-550;3073;-2467;32;33;493
546001;1;7;0;945;-503;3060;-2483;54;101;425
546011;1;7;0;945;-492;3080;-2557;138;178;309
546021;1;7;0;945;-528;3056;-2601;215;272;288
546031;1;7;0;945;-483;3018;-2638;242;244;189
546041;1;7;0;945;-474;2978;-2650;200;232;64
546051;1;7;0;945;-530;2989;-2665;137;136;-18
546061;1;7;0;945;-604;2936;-2618;127;113;-27
546071;1;7;0;945;-644;2983;-2618;143;140;56
546081;1;7;0;945;-631;3033;-2662;122;106;162
546091;1;7;0;946;-583;3073;-2732;11;14;260
546101;1;7;0;946;-511;3082;-2789;-60;-63;297
546111;1;7;0;946;-439;3088;-2853;-77;-42;273
546121;1;7;0;946;-412;3071;-2878;-70;78;317
546131;1;7;0;946;-414;3020;-2802;-57;220;331
546141;1;7;0;946;-399;2900;-2682;-68;326;234
546151;1;7;0;946;-385;2869;-2610;-61;346;110
546161;1;7;0;946;-402;2896;-2585;-53;267;-80
546171;1;7;0;946;-502;3009;-2615;-61;88;-234
546181;1;7;0;946;-641;3101;-2634;-105;-97;-269
546191;1;7;0;946;-676;3172;-2656;-147;-235;-167
546201;1;7;0;946;-665;3205;-2615;-192;-275;50
546211;1;7;0;946;-580;3184;-2599;-192;-233;247
546221;1;7;0;946;-423;3165;-2653;-173;-150;373
546231;1;7;0;946;-345;3114;-2652;-146;-41;414
546241;1;7;0;946;-287;3054;-2649;-106;-37;293
546251;1;7;0;946;-288;3061;-2655;-104;-65;127
546261;1;7;0;946;-353;3094;-2650;-130;-125;16
546271;1;7;0;946;-440;3125;-2619;-143;-177;21
546281;1;7;0;946;-436;3136;-2623;-170;-199;108
546291;1;7;0;946;-427;3123;-2667;-169;-180;212
546301;1;7;0;946;-432;3092;-2672;-173;-139;301
546311;1;7;0;946;-411;3062;-2657;-161;-141;311
546321;1;7;0;946;-389;3039;-2637;-199;-145;291
546331;1;7;0;946;-355;3060;-2612;-241;-180;223
546341;1;7;0;946;-320;3081;-2598;-242;-195;131
546351;1;7;0;946;-310;3091;-2618;-229;-189;53
546361;1;7;0;946;-296;3070;-2626;-204;-171;-21
546371;1;7;0;946;-281;3034;-2627;-194;-151;-99
546381;1;7;0;946;-309;3010;-2570;-204;-179;-214
546391;1;7;0;946;-375;2999;-2569;-203;-286;-341
546401;1;7;0;946;-433;3004;-2613;-251;-430;-474
546411;1;7;0;946;-422;3084;-2686;-235;-561;-516
546421;1;7;0;946;-446;3204;-2767;-219;-531;-446
546431;1;7;0;946;-470;3220;-2826;-209;-429;-301
546441;1;7;0;946;-459;3203;-2800;-184;-279;-68
546451;1;7;0;946;-410;3173;-2758;-170;-144;110
546461;1;7;0;946;-406;3130;-2666;-122;-51;207
546471;1;7;0;946;-407;3086;-2607;-101;-16;229
546481;1;7;0;946;-365;3071;-2595;-75;-48;198
546491;1;7;0;946;-327;3064;-2577;-84;-98;149
546501;1;7;0;946;-298;3043;-2621;-117;-161;70
546511;1;7;0;946;-306;3037;-2661;-158;-213;0
546521;1;7;0;946;-331;3048;-2685;-195;-230;-51
546531;1;7;0;946;-319;3054;-2714;-198;-233;-71
546541;1;7;0;946;-314;3050;-2730;-187;-214;-94
546551;1;7;0;946;-294;3051;-2760;-177;-194;-107
546561;1;7;0;946;-292;3044;-2759;-137;-152;-151
546571;1;7;0;946;-313;3060;-2758;-113;-107;-169
546581;1;7;0;946;-336;3096;-2737;-104;-66;-145
546591;1;7;0;947;-362;3087;-2701;-106;-28;-110
546601;1;7;0;947;-370;3052;-2646;-115;-12;-89
546611;1;7;0;947;-374;3020;-2623;-125;-17;-104
546621;1;7;0;947;-366;3024;-2608;-133;-85;-119
546631;1;7;0;947;-381;3040;-2622;-176;-175;-120
546641;1;7;0;947;-364;3062;-2643;-213;-293;-139
546651;1;7;0;947;-394;3085;-2669;-232;-423;-151
546661;1;7;0;947;-424;3123;-2673;-245;-515;-115
546671;1;7;0;947;-410;3143;-2652;-273;-534;-60
546681;1;7;0;947;-413;3142;-2643;-275;-552;21
546691;1;7;0;947;-365;3128;-2636;-287;-545;92
546701;1;7;0;947;-367;3116;-2610;-277;-492;118
546711;1;7;0;947;-369;3105;-2547;-233;-454;106
546721;1;7;0;947;-374;3083;-2578;-210;-431;58
546731;1;7;0;947;-351;3091;-2624;-232;-459;0
546741;1;7;0;947;-396;3076;-2664;-304;-564;-49
546751;1;7;0;947;-384;3073;-2684;-368;-677;-85
546761;1;7;0;947;-393;3055;-2686;-409;-758;-91
546771;1;7;0;947;-407;3072;-2703;-399;-775;-17
546781;1;7;0;947;-383;3040;-2682;-390;-713;79
546791;1;7;0;947;-339;2980;-2638;-390;-643;98
546801;1;7;0;947;-298;2909;-2633;-364;-573;43
546811;1;7;0;947;-286;2854;-2643;-328;-581;-76
546821;1;7;0;947;-363;2867;-2645;-296;-675;-255
546831;1;7;0;947;-411;2921;-2681;-319;-803;-406
546841;1;7;0;947;-465;2982;-2655;-407;-916;-533
546851;1;7;0;947;-543;3021;-2626;-496;-1022;-584
546861;1;7;0;947;-542;3048;-2537;-540;-1047;-516
546871;1;7;0;947;-539;3058;-2497;-544;-1033;-377
546881;1;7;0;947;-565;3049;-2457;-509;-964;-161
546891;1;7;0;947;-558;3015;-2408;-429;-920;31
546901;1;7;0;947;-558;2980;-2375;-326;-924;116
546911;1;7;0;947;-458;2985;-2378;-277;-958;180
546921;1;7;0;947;-407;2954;-2387;-282;-959;211
546931;1;7;0;947;-343;2858;-2373;-281;-959;201
546941;1;7;0;947;-312;2826;-2299;-231;-888;95
546951;1;7;0;947;-341;2780;-2251;-252;-824;-71
546961;1;7;0;947;-407;2712;-2189;-272;-844;-265
546971;1;7;0;947;-514;2716;-2189;-280;-972;-468
546981;1;7;0;947;-544;2803;-2267;-336;-1185;-624
546991;1;7;0;947;-539;2924;-2414;-454;-1331;-650
547001;1;7;0;947;-489;3012;-2484;-590;-1344;-550
547011;1;7;0;947;-443;2973;-2445;-723;-1149;-363
547021;1;7;0;947;-473;2790;-2301;-821;-857;-204
547031;1;7;0;947;-409;2564;-2077;-760;-560;-192
547041;1;7;0;947;-437;2354;-1863;-683;-367;-397
547051;1;7;0;947;-596;2237;-1821;-681;-501;-689
547061;1;7;0;947;-796;2365;-1866;-806;-961;-920
547071;1;7;0;947;-721;2682;-1995;-1031;-1466;-792
547081;1;7;0;947;-587;2916;-2113;-1237;-1745;-349
547091;1;7;0;948;-494;3092;-2311;-1298;-1663;225
547101;1;7;0;948;-463;3035;-2380;-1225;-1393;684
547111;1;7;0;948;-350;2983;-2352;-1146;-1033;791
547121;1;7;0;948;-240;2569;-2185;-1096;-603;452
547131;1;7;0;948;-211;2160;-2059;-1042;-447;-310
547141;1;7;0;948;-259;2055;-2045;-1055;-673;-1200
547151;1;7;0;948;-339;2392;-2197;-1097;-1083;-1752
547161;1;7;0;948;-394;2938;-2508;-1263;-1468;-1806
547171;1;7;0;948;-570;3580;-2791;-1346;-1394;-1384
547181;1;7;0;948;-667;3898;-2851;-1455;-1026;-674
547191;1;7;0;948;-706;3872;-2720;-1485;-584;-17
547201;1;7;0;948;-664;3603;-2400;-1390;-211;335
547211;1;7;0;948;-607;3205;-1989;-1379;-113;466
547221;1;7;0;948;-492;2679;-1687;-1383;-289;367
547231;1;7;0;948;-429;2411;-1594;-1224;-679;73
547241;1;7;0;948;-327;2373;-1677;-996;-973;-185
547251;1;7;0;948;-390;2532;-1945;-685;-1062;-351
547261;1;7;0;948;-428;2830;-2320;-481;-894;-457
547271;1;7;0;948;-479;3084;-2545;-503;-775;-594
547281;1;7;0;948;-732;3269;-2380;-813;-697;-841
547291;1;7;0;948;-974;3308;-2049;-1277;-960;-925
547301;1;7;0;948;-1197;3282;-1748;-1752;-1372;-797
547311;1;7;0;948;-1151;3149;-1633;-1947;-1655;-524
547321;1;7;0;948;-804;3024;-1768;-1807;-1472;-195
547331;1;7;0;948;-619;2853;-1918;-1498;-1047;37
547341;1;7;0;948;-553;2762;-2091;-1152;-732;50
547351;1;7;0;948;-565;2896;-2233;-908;-697;-173
547361;1;7;0;948;-650;3092;-2255;-892;-934;-445
547371;1;7;0;948;-827;3192;-2098;-1134;-1299;-589
547381;1;7;0;948;-1093;3161;-1920;-1468;-1599;-452
547391;1;7;0;948;-1061;2986;-1743;-1670;-1656;-156
547401;1;7;0;948;-950;2891;-1675;-1619;-1632;58
547411;1;7;0;948;-830;2909;-1763;-1348;-1548;43
547421;1;7;0;948;-774;3073;-1976;-1044;-1446;-151
547431;1;7;0;948;-699;3411;-2343;-795;-1384;-313
547441;1;7;0;948;-778;3685;-2562;-719;-1289;-307
547451;1;7;0;948;-874;3806;-2657;-835;-1286;-200
547461;1;7;0;948;-904;3704;-2447;-1051;-1129;-200
547471;1;7;0;948;-965;3561;-2210;-1167;-908;-200
547481;1;7;0;948;-1038;3427;-1990;-1153;-667;-293
547491;1;7;0;948;-1063;3353;-1875;-1060;-492;-391
547501;1;7;0;948;-1046;3363;-1903;-945;-495;-440
547511;1;7;0;948;-1134;3475;-2076;-879;-757;-445
547521;1;7;0;948;-1177;3684;-2324;-1023;-1220;-414
547531;1;7;0;948;-1209;3938;-2522;-1288;-1691;-289
547541;1;7;0;948;-1194;4065;-2632;-1545;-1806;-55
547551;1;7;0;948;-1035;3939;-2619;-1619;-1544;162
547561;1;7;0;948;-888;3680;-2487;-1416;-1040;154
547571;1;7;0;948;-853;3503;-2352;-973;-447;-173
547581;1;7;0;948;-872;3395;-2314;-654;-94;-665
547591;1;7;0;949;-925;3400;-2431;-374;87;-1267
547601;1;7;0;949;-1240;3455;-2517;-250;43;-1603
547611;1;7;0;949;-1543;3582;-2496;-227;-265;-1689
547621;1;7;0;949;-1565;3828;-2483;-287;-469;-1448
547631;1;7;0;949;-1494;4117;-2368;-389;-500;-975
547641;1;7;0;949;-1344;4270;-2240;-455;-408;-540
547651;1;7;0;949;-1314;4247;-2032;-387;-413;-238
547661;1;7;0;949;-1341;4212;-1960;-290;-550;-56
547671;1;7;0;949;-1314;4173;-2030;-305;-779;50
547681;1;7;0;949;-1282;4019;-2129;-387;-1037;129
547691;1;7;0;949;-1182;3978;-2116;-442;-1309;328
547701;1;7;0;949;-1182;3959;-2121;-457;-1226;423
547711;1;7;0;949;-1251;3737;-2144;-470;-1029;372
547721;1;7;0;949;-1250;3703;-2095;-352;-722;277
547731;1;7;0;949;-1305;3775;-2196;-168;-470;123
547741;1;7;0;949;-1302;3953;-2264;22;-233;28
547751;1;7;0;949;-1366;4116;-2355;210;-60;-130
547761;1;7;0;949;-1232;4161;-2347;336;28;-341
547771;1;7;0;949;-1127;3996;-2297;428;218;-524
547781;1;7;0;949;-985;3712;-2226;512;424;-576
547791;1;7;0;949;-1019;3383;-2127;577;549;-621
547801;1;7;0;949;-1100;3172;-2028;614;496;-589
547811;1;7;0;949;-1267;3125;-1899;672;367;-466
547821;1;7;0;949;-1472;3282;-1835;688;178;-303
547831;1;7;0;949;-1528;3596;-1879;626;-50;-74
547841;1;7;0;949;-1534;3797;-1944;519;-296;217
547851;1;7;0;949;-1527;3952;-2097;383;-532;433
547861;1;7;0;949;-1301;3909;-2188;189;-512;553
547871;1;7;0;949;-1167;3753;-2180;111;-317;563
547881;1;7;0;949;-1014;3487;-2089;206;47;351
547891;1;7;0;949;-958;3288;-2018;427;304;95
547901;1;7;0;949;-988;3228;-1949;697;544;-147
547911;1;7;0;949;-1130;3298;-1881;886;663;-171
547921;1;7;0;949;-1200;3489;-1862;970;741;18
547931;1;7;0;949;-1191;3713;-1936;987;800;324
547941;1;7;0;949;-1108;3811;-2029;991;894;608
547951;1;7;0;949;-1026;3792;-2133;962;1004;771
547961;1;7;0;949;-963;3648;-2195;914;1076;790
547971;1;7;0;949;-941;3474;-2209;826;1130;670
547981;1;7;0;949;-883;3330;-2255;741;1221;550
547991;1;7;0;949;-884;3213;-2261;730;1358;451
548001;1;7;0;949;-911;3217;-2252;798;1544;471
548011;1;7;0;949;-934;3267;-2270;883;1728;545
548021;1;7;0;949;-956;3345;-2282;938;1833;678
548031;1;7;0;949;-929;3491;-2314;947;1812;819
548041;1;7;0;949;-873;3603;-2401;882;1700;935
548051;1;7;0;949;-832;3690;-2441;812;1556;1029
548061;1;7;0;949;-833;3698;-2486;755;1488;1104
548071;1;7;0;949;-791;3680;-2471;738;1457;1164
548081;1;7;0;949;-803;3631;-2466;812;1416;1159
548091;1;7;0;950;-769;3651;-2485;932;1382;1112
548101;1;7;0;950;-739;3646;-2545;1079;1398;1074
548111;1;7;0;950;-737;3590;-2554;1218;1421;1072
548121;1;7;0;950;-699;3540;-2565;1294;1435;1076
548131;1;7;0;950;-689;3454;-2549;1294;1392;1060
548141;1;7;0;950;-679;3375;-2481;1202;1253;1046
548151;1;7;0;950;-660;3322;-2432;1093;1096;1019
548161;1;7;0;950;-659;3240;-2394;1019;962;1007
548171;1;7;0;950;-646;3186;-2359;946;868;1025
548181;1;7;0;950;-569;3134;-2340;923;863;1052
548191;1;7;0;950;-526;3061;-2372;947;924;1071
548201;1;7;0;950;-487;3020;-2388;960;985;1070
548211;1;7;0;950;-489;3026;-2439;961;979;1008
548221;1;7;0;950;-507;3025;-2472;946;929;882
548231;1;7;0;950;-529;3041;-2474;899;857;745
548241;1;7;0;950;-559;3083;-2485;825;811;653
548251;1;7;0;950;-564;3095;-2472;761;787;620
548261;1;7;0;950;-513;3146;-2443;696;737;596
548271;1;7;0;950;-465;3182;-2471;661;670;593
548281;1;7;0;950;-439;3248;-2505;639;626;608
548291;1;7;0;950;-450;3305;-2521;629;547;640
548301;1;7;0;950;-490;3378;-2529;592;456;692
548311;1;7;0;950;-500;3406;-2560;547;393;759
548321;1;7;0;950;-459;3404;-2511;539;358;848
548331;1;7;0;950;-414;3343;-2464;572;419;934
548341;1;7;0;950;-320;3224;-2435;530;451;1001
548351;1;7;0;950;-208;3099;-2473;552;494;945
548361;1;7;0;950;-178;3035;-2497;521;484;860
548371;1;7;0;950;-166;3032;-2548;515;485;690
548381;1;7;0;950;-209;3047;-2636;480;492;527
548391;1;7;0;950;-291;3055;-2716;370;476;412
548401;1;7;0;950;-307;3103;-2683;243;399;375
548411;1;7;0;950;-319;3138;-2668;149;318;349
548421;1;7;0;950;-331;3176;-2645;127;297;368
548431;1;7;0;950;-341;3169;-2600;159;341;397
548441;1;7;0;950;-324;3154;-2573;193;382;436
548451;1;7;0;950;-278;3121;-2567;198;416;448
548461;1;7;0;950;-244;3093;-2572;207;392;426
548471;1;7;0;950;-245;3075;-2590;201;359;374
548481;1;7;0;950;-241;3086;-2657;206;326;308
548491;1;7;0;950;-257;3112;-2670;192;303;258
548501;1;7;0;950;-274;3125;-2688;164;284;238
548511;1;7;0;950;-225;3091;-2691;143;298;242
548521;1;7;0;950;-194;3076;-2670;114;330;231
548531;1;7;0;950;-172;3048;-2660;105;362;178
548541;1;7;0;950;-167;3032;-2668;100;389;90
548551;1;7;0;950;-199;3062;-2668;94;383;17
548561;1;7;0;950;-222;3084;-2649;85;356;-39
548571;1;7;0;950;-230;3139;-2638;76;310;-50
548581;1;7;0;950;-239;3176;-2641;51;275;-26
548591;1;7;0;951;-207;3184;-2617;22;241;10
548601;1;7;0;951;-185;3165;-2604;2;219;25
548611;1;7;0;951;-152;3146;-2626;-13;204;16
548621;1;7;0;951;-131;3126;-2639;-26;209;-4
548631;1;7;0;951;-147;3101;-2601;-56;204;-33
548641;1;7;0;951;-154;3130;-2575;-66;174;-83
548651;1;7;0;951;-158;3170;-2578;-85;142;-134
548661;1;7;0;951;-176;3198;-2585;-87;117;-155
548671;1;7;0;951;-179;3196;-2592;-93;108;-106
548681;1;7;0;951;-161;3169;-2587;-95;126;-41
548691;1;7;0;951;-146;3120;-2595;-85;122;0
548701;1;7;0;951;-122;3079;-2612;-99;128;-18
548711;1;7;0;951;-96;3073;-2666;-88;132;-72
548721;1;7;0;951;-119;3080;-2675;-88;121;-148
548731;1;7;0;951;-129;3097;-2680;-101;82;-209
548741;1;7;0;951;-167;3125;-2653;-115;23;-250
548751;1;7;0;951;-192;3138;-2641;-142;-28;-243
548761;1;7;0;951;-197;3135;-2611;-167;-61;-187
548771;1;7;0;951;-198;3129;-2608;-174;-89;-123
548781;1;7;0;951;-194;3085;-2614;-169;-111;-65
548791;1;7;0;951;-181;3053;-2626;-148;-130;-49
548801;1;7;0;951;-152;3052;-2671;-146;-155;-83
548811;1;7;0;951;-129;3083;-2688;-158;-176;-152
548821;1;7;0;951;-132;3117;-2688;-170;-182;-222
548831;1;7;0;951;-146;3140;-2679;-201;-181;-257
548841;1;7;0;951;-170;3117;-2657;-225;-175;-254
548851;1;7;0;951;-226;3094;-2636;-257;-229;-256
548861;1;7;0;951;-244;3085;-2669;-303;-332;-263
548871;1;7;0;951;-210;3058;-2682;-360;-421;-304
548881;1;7;0;951;-147;3019;-2710;-406;-457;-348
548891;1;7;0;951;-122;2973;-2728;-427;-459;-404
548901;1;7;0;951;-81;2928;-2719;-445;-477;-509
548911;1;7;0;951;-97;2907;-2695;-472;-512;-662
548921;1;7;0;951;-110;2941;-2684;-512;-577;-822
548931;1;7;0;951;-142;3011;-2645;-578;-659;-998
548941;1;7;0;951;-162;3110;-2591;-629;-724;-1064
548951;1;7;0;951;-195;3153;-2561;-698;-776;-1064
548961;1;7;0;951;-203;3173;-2564;-773;-843;-1005
548971;1;7;0;951;-207;3143;-2562;-837;-915;-928
548981;1;7;0;951;-200;3117;-2594;-896;-982;-876
548991;1;7;0;951;-166;3069;-2624;-923;-1058;-862
549001;1;7;0;951;-145;3038;-2666;-994;-1122;-898
549011;1;7;0;951;-124;2992;-2672;-1066;-1189;-990
549021;1;7;0;951;-82;2969;-2680;-1138;-1249;-1140
549031;1;7;0;951;-124;2967;-2657;-1175;-1295;-1315
549041;1;7;0;951;-233;3005;-2605;-1223;-1371;-1488
549051;1;7;0;951;-338;3084;-2624;-1308;-1474;-1599
549061;1;7;0;951;-460;3183;-2681;-1442;-1614;-1639
549071;1;7;0;951;-521;3298;-2790;-1644;-1809;-1646
549081;1;7;0;951;-576;3352;-2889;-1903;-2109;-1590
549091;1;7;0;952;-537;3308;-2917;-2140;-2341;-1552
549101;1;7;0;952;-418;3170;-2762;-2218;-2372;-1530
549111;1;7;0;952;-337;3085;-2574;-2181;-2305;-1641
549121;1;7;0;952;-366;3058;-2376;-2055;-2223;-1954
549131;1;7;0;952;-357;3177;-2210;-1912;-2198;-2267
549141;1;7;0;952;-553;3429;-2218;-1811;-2290;-2490
549151;1;7;0;952;-689;3735;-2348;-1813;-2465;-2464
549161;1;7;0;952;-762;3987;-2584;-1893;-2591;-2222
549171;1;7;0;952;-878;4208;-2867;-1933;-2623;-1789
549181;1;7;0;952;-813;4366;-3212;-2000;-2424;-1317
549191;1;7;0;952;-819;4301;-3394;-2056;-2027;-952
549201;1;7;0;952;-841;4152;-3350;-1992;-1450;-1009
549211;1;7;0;952;-984;4028;-3019;-1844;-1033;-1427
549221;1;7;0;952;-1228;3933;-2694;-1675;-878;-1955
549231;1;7;0;952;-1415;3986;-2442;-1548;-815;-2277
549241;1;7;0;952;-1517;4179;-2345;-1392;-796;-2201
549251;1;7;0;952;-1543;4388;-2363;-1195;-640;-1739
549261;1;7;0;952;-1468;4474;-2433;-952;-359;-999
549271;1;7;0;952;-1315;4463;-2519;-741;-7;-216
549281;1;7;0;952;-1139;4305;-2567;-511;377;317
549291;1;7;0;952;-1078;4136;-2677;-379;599;422
549301;1;7;0;952;-1119;4019;-2809;-306;564;156
549311;1;7;0;952;-1272;4014;-2947;-294;400;-265
549321;1;7;0;952;-1399;4135;-3063;-333;251;-645
549331;1;7;0;952;-1477;4300;-3102;-415;180;-942
549341;1;7;0;952;-1567;4427;-3063;-476;172;-1055
549351;1;7;0;952;-1603;4534;-2951;-469;245;-899
549361;1;7;0;952;-1611;4572;-2812;-364;393;-575
549371;1;7;0;952;-1606;4560;-2672;-220;593;-203
549381;1;7;0;952;-1505;4523;-2651;-29;760;55
549391;1;7;0;952;-1473;4495;-2710;112;920;41
549401;1;7;0;952;-1377;4399;-2716;188;1029;-178
549411;1;7;0;952;-1375;4308;-2720;245;1112;-417
549421;1;7;0;952;-1312;4215;-2712;259;1125;-682
549431;1;7;0;952;-1338;4192;-2728;263;1120;-785
549441;1;7;0;952;-1365;4141;-2668;253;1066;-784
549451;1;7;0;952;-1376;4035;-2608;279;1074;-662
549461;1;7;0;952;-1341;3958;-2576;285;1103;-526
549471;1;7;0;952;-1265;3824;-2546;294;1183;-379
549481;1;7;0;952;-1168;3687;-2538;331;1278;-264
549491;1;7;0;952;-1088;3603;-2531;414;1294;-208
549501;1;7;0;952;-1058;3558;-2487;420;1302;-177
549511;1;7;0;952;-905;3472;-2460;440;1384;-145
549521;1;7;0;952;-826;3364;-2381;493;1577;-150
549531;1;7;0;952;-896;3208;-2295;587;1775;-229
549541;1;7;0;952;-923;3087;-2179;699;1954;-278
549551;1;7;0;952;-855;3046;-2096;797;2098;-137
549561;1;7;0;952;-902;2871;-1982;765;2245;84
549571;1;7;0;952;-836;2679;-1939;751;2242;256
549581;1;7;0;952;-696;2521;-1917;713;2233;421
549591;1;7;0;953;-632;2358;-1811;654;2103;576
549601;1;7;0;953;-563;2215;-1736;614;1979;603
549611;1;7;0;953;-406;2150;-1640;627;1865;673
549621;1;7;0;953;-422;2190;-1563;659;1758;750
549631;1;7;0;953;-327;2128;-1441;610;1774;890
549641;1;7;0;953;-345;2045;-1404;595;1758;1058
549651;1;7;0;953;-290;2005;-1388;547;1772;1112
549661;1;7;0;953;-220;1972;-1409;516;1729;1172
549671;1;7;0;953;-324;1935;-1406;488;1649;1016
549681;1;7;0;953;-290;2036;-1464;561;1487;831
549691;1;7;0;953;-111;2189;-1551;707;1513;713
549701;1;7;0;953;-176;2253;-1571;776;1732;657
549711;1;7;0;953;-340;2285;-1543;764;1971;591
549721;1;7;0;953;-433;2206;-1518;613;2115;544
549731;1;7;0;953;-520;2029;-1412;442;2060;580
549741;1;7;0;953;-523;1915;-1323;525;1932;412
549751;1;7;0;953;-548;1804;-1347;486;1932;240
549761;1;7;0;953;-530;1804;-1381;601;1704;330
549771;1;7;0;953;-410;2106;-1432;671;1656;239
549781;1;7;0;953;-400;2280;-1490;706;1647;28
549791;1;7;0;953;-562;2345;-1569;709;1600;-131
549801;1;7;0;953;-717;2420;-1648;704;1451;-238
549811;1;7;0;953;-813;2469;-1737;757;1147;-234
549821;1;7;0;953;-813;2677;-1894;718;808;-337
549831;1;7;0;953;-819;2900;-2077;692;448;-443
549841;1;7;0;953;-859;3079;-2177;659;226;-392
549851;1;7;0;953;-888;3204;-2229;625;60;-260
549861;1;7;0;953;-858;3320;-2305;621;-17;-97
549871;1;7;0;953;-812;3373;-2417;658;8;83
549881;1;7;0;953;-661;3381;-2527;712;97;264
549891;1;7;0;953;-535;3381;-2640;846;207;361
549901;1;7;0;953;-430;3307;-2562;1017;410;535
549911;1;7;0;953;-433;3232;-2497;1293;673;720
549921;1;7;0;953;-502;3152;-2577;1266;767;734
549931;1;7;0;953;-549;3184;-2601;1149;780;673
549941;1;7;0;953;-479;3050;-2646;703;607;766
549951;1;7;0;953;-397;2967;-2631;516;585;709
549961;1;7;0;953;-396;2911;-2660;289;436;942
549971;1;7;0;953;-402;2890;-2625;164;384;962
549981;1;7;0;953;-427;2881;-2612;32;319;955
549991;1;7;0;953;-438;2885;-2571;-67;213;903
550001;1;7;0;953;-430;2894;-2575;-178;98;818
550011;1;7;0;953;-395;2884;-2564;-216;48;706
550021;1;7;0;953;-408;2925;-2598;-199;30;625
550031;1;7;0;953;-487;3017;-2550;-175;-45;569
550041;1;7;0;953;-578;3099;-2480;-134;-187;532
550051;1;7;0;953;-584;3163;-2461;-115;-305;516
550061;1;7;0;953;-541;3224;-2499;-95;-364;517
550071;1;7;0;953;-485;3221;-2540;-82;-409;540
550081;1;7;0;953;-419;3179;-2569;-26;-434;548
550091;1;7;0;954;-405;3134;-2599;46;-450;524
550101;1;7;0;954;-360;3071;-2610;118;-418;485
550111;1;7;0;954;-323;3002;-2657;179;-362;429
550121;1;7;0;954;-273;2964;-2712;224;-296;314
550131;1;7;0;954;-223;2964;-2745;242;-211;174
550141;1;7;0;954;-175;2991;-2781;211;-135;57
550151;1;7;0;954;-198;2984;-2783;163;-67;-79
550161;1;7;0;954;-211;2998;-2763;108;-7;-209
550171;1;7;0;954;-265;3018;-2740;39;21;-275
550181;1;7;0;954;-317;2956;-2722;-26;57;-330
550191;1;7;0;954;-369;2951;-2728;-95;39;-376
550201;1;7;0;954;-388;3040;-2741;-176;-34;-414
550211;1;7;0;954;-387;3076;-2745;-272;-95;-374
550221;1;7;0;954;-417;3135;-2750;-395;-156;-243
550231;1;7;0;954;-437;3174;-2676;-477;-236;-58
550241;1;7;0;954;-414;3193;-2608;-451;-267;118
550251;1;7;0;954;-406;3180;-2571;-359;-261;210
550261;1;7;0;954;-289;3173;-2576;-275;-227;218
550271;1;7;0;954;-287;3053;-2610;-239;-134;149
550281;1;7;0;954;-229;3088;-2680;-163;-161;63
550291;1;7;0;954;-190;3093;-2699;-151;-124;-36
550301;1;7;0;954;-208;3102;-2698;-131;-111;-86
550311;1;7;0;954;-239;3146;-2682;-62;-74;-88
550321;1;7;0;954;-269;3138;-2709;-3;8;-50
550331;1;7;0;954;-271;3095;-2705;23;88;-3
550341;1;7;0;954;-240;3025;-2702;-16;96;30
550351;1;7;0;954;-209;2955;-2686;-80;33;-8
550361;1;7;0;954;-217;2942;-2657;-137;-67;-123
550371;1;7;0;954;-235;2977;-2661;-159;-149;-218
550381;1;7;0;954;-287;3034;-2674;-163;-227;-278
550391;1;7;0;954;-286;3088;-2715;-201;-261;-284
550401;1;7;0;954;-292;3094;-2718;-247;-251;-260
550411;1;7;0;954;-236;3088;-2709;-299;-214;-234
550421;1;7;0;954;-217;3071;-2694;-301;-174;-232
550431;1;7;0;954;-222;3082;-2673;-256;-141;-276
550441;1;7;0;954;-257;3106;-2693;-181;-114;-325
550451;1;7;0;954;-288;3119;-2702;-144;-119;-349
550461;1;7;0;954;-328;3106;-2709;-146;-124;-345
550471;1;7;0;954;-365;3112;-2695;-144;-127;-312
550481;1;7;0;954;-354;3107;-2701;-152;-103;-228
550491;1;7;0;954;-352;3086;-2693;-149;-49;-169
550501;1;7;0;954;-315;3064;-2713;-159;-4;-133
550511;1;7;0;954;-281;3047;-2714;-164;-19;-146
550521;1;7;0;954;-249;3041;-2650;-204;-60;-193
550531;1;7;0;954;-261;3015;-2621;-221;-124;-264
550541;1;7;0;954;-281;3022;-2619;-227;-165;-323
550551;1;7;0;954;-284;3040;-2639;-225;-175;-371
550561;1;7;0;954;-340;3077;-2642;-202;-205;-394
550571;1;7;0;954;-383;3133;-2682;-216;-251;-396
550581;1;7;0;954;-371;3157;-2700;-234;-301;-367
550591;1;7;0;955;-378;3170;-2675;-227;-324;-281
550601;1;7;0;955;-401;3142;-2653;-218;-311;-174
550611;1;7;0;955;-402;3129;-2660;-208;-306;-56
550621;1;7;0;955;-390;3119;-2641;-217;-308;24
550631;1;7;0;955;-382;3107;-2646;-229;-342;54
550641;1;7;0;955;-378;3084;-2608;-264;-403;23
550651;1;7;0;955;-398;3060;-2573;-303;-489;-21
550661;1;7;0;955;-409;3045;-2559;-330;-583;-71
550671;1;7;0;955;-464;3040;-2555;-362;-697;-105
550681;1;7;0;955;-514;3062;-2544;-402;-833;-137
550691;1;7;0;955;-474;3063;-2535;-490;-955;-192
550701;1;7;0;955;-424;3056;-2527;-568;-1011;-215
550711;1;7;0;955;-409;3047;-2507;-633;-1020;-240
550721;1;7;0;955;-413;3000;-2484;-664;-1018;-284
550731;1;7;0;955;-470;2960;-2477;-669;-1055;-368
550741;1;7;0;955;-507;2991;-2480;-687;-1157;-452
550751;1;7;0;955;-521;2998;-2464;-726;-1311;-517
550761;1;7;0;955;-566;2994;-2432;-755;-1469;-561
550771;1;7;0;955;-605;2997;-2401;-814;-1553;-587
550781;1;7;0;955;-589;2967;-2338;-812;-1612;-519
550791;1;7;0;955;-616;2922;-2215;-790;-1620;-508
550801;1;7;0;955;-639;2894;-2155;-756;-1685;-550
550811;1;7;0;955;-710;2888;-2102;-731;-1862;-600
550821;1;7;0;955;-808;2913;-2090;-727;-2130;-625
550831;1;7;0;955;-755;2902;-2078;-728;-2354;-533
550841;1;7;0;955;-741;2902;-2104;-770;-2456;-390
550851;1;7;0;955;-634;2833;-2171;-787;-2357;-198
550861;1;7;0;955;-491;2759;-2257;-808;-2175;-114
550871;1;7;0;955;-394;2700;-2309;-825;-1976;-146
550881;1;7;0;955;-427;2643;-2252;-813;-1824;-354
550891;1;7;0;955;-498;2614;-2163;-752;-1662;-666
550901;1;7;0;955;-561;2609;-2069;-733;-1566;-905
550911;1;7;0;955;-569;2569;-1985;-822;-1519;-1056
550921;1;7;0;955;-619;2507;-1881;-979;-1499;-1114
550931;1;7;0;955;-655;2414;-1762;-1170;-1513;-1058
550941;1;7;0;955;-679;2330;-1722;-1274;-1599;-865
550951;1;7;0;955;-691;2374;-1746;-1318;-1799;-691
550961;1;7;0;955;-644;2465;-1818;-1354;-2041;-540
550971;1;7;0;955;-541;2577;-1902;-1363;-2233;-431
550981;1;7;0;955;-514;2622;-1994;-1367;-2303;-395
550991;1;7;0;955;-535;2655;-2037;-1308;-2360;-449
551001;1;7;0;955;-607;2712;-2056;-1270;-2437;-564
551011;1;7;0;955;-621;2725;-2066;-1279;-2515;-724
551021;1;7;0;955;-659;2812;-2094;-1289;-2589;-855
551031;1;7;0;955;-622;2911;-2187;-1314;-2529;-1017
551041;1;7;0;955;-649;3083;-2302;-1269;-2400;-1089
551051;1;7;0;955;-658;3257;-2456;-1215;-2213;-1060
551061;1;7;0;955;-765;3383;-2584;-1239;-2030;-993
551071;1;7;0;955;-771;3419;-2615;-1304;-1781;-815
551081;1;7;0;955;-756;3313;-2503;-1387;-1590;-622
551091;1;7;0;956;-668;3005;-2245;-1423;-1324;-355
551101;1;7;0;956;-670;2711;-1926;-1349;-1175;-145
551111;1;7;0;956;-659;2556;-1718;-1155;-1165;-148
551121;1;7;0;956;-622;2529;-1699;-962;-1290;-329
551131;1;7;0;956;-643;2567;-1874;-822;-1502;-533
551141;1;7;0;956;-810;2795;-2084;-822;-1811;-674
551151;1;7;0;956;-1010;2988;-2333;-990;-2114;-651
551161;1;7;0;956;-1002;3150;-2540;-1369;-2312;-542
551171;1;7;0;956;-766;3132;-2574;-1578;-2056;-358
551181;1;7;0;956;-638;2959;-2381;-1457;-1505;-177
551191;1;7;0;956;-614;2724;-2083;-1080;-835;-292
551201;1;7;0;956;-716;2736;-1907;-695;-415;-620
551211;1;7;0;956;-816;2868;-1790;-446;-347;-960
551221;1;7;0;956;-931;3092;-1718;-318;-525;-1016
551231;1;7;0;956;-1083;3190;-1614;-349;-721;-803
551241;1;7;0;956;-1104;3220;-1524;-416;-1021;-470
551251;1;7;0;956;-1131;3170;-1469;-460;-1259;-45
551261;1;7;0;956;-1350;3161;-1450;-525;-1551;344
551271;1;7;0;956;-1343;3310;-1627;-660;-2066;618
551281;1;7;0;956;-1397;3712;-1853;-735;-2644;860
551291;1;7;0;956;-1272;3962;-2175;-892;-2533;826
551301;1;7;0;956;-1074;3976;-2470;-989;-2154;727
551311;1;7;0;956;-956;3794;-2542;-1018;-1590;523
551321;1;7;0;956;-940;3419;-2539;-945;-935;103
551331;1;7;0;956;-1102;3052;-2255;-798;-574;-468
551341;1;7;0;956;-1178;2803;-2102;-578;-491;-981
551351;1;7;0;956;-1431;2958;-1945;-368;-633;-1210
551361;1;7;0;956;-1647;3452;-1881;-283;-1036;-1098
551371;1;7;0;956;-1790;4189;-1906;-518;-1517;-601
551381;1;7;0;956;-1701;4506;-2010;-891;-1964;148
551391;1;7;0;956;-1661;4456;-2095;-1136;-2250;893
551401;1;7;0;956;-1480;4073;-2010;-1206;-2358;1520
551411;1;7;0;956;-1250;3705;-1973;-1025;-2356;1822
551421;1;7;0;956;-1064;3307;-2002;-642;-2058;1653
551431;1;7;0;956;-1142;3007;-2059;-400;-1811;1083
551441;1;7;0;956;-1327;2929;-2284;-399;-1665;346
551451;1;7;0;956;-1396;3133;-2528;-548;-1610;-230
551461;1;7;0;956;-1577;3641;-2531;-768;-1546;-565
551471;1;7;0;956;-1556;4130;-2517;-1072;-1493;-737
551481;1;7;0;956;-1466;4444;-2312;-921;-1051;-546
551491;1;7;0;956;-1265;4439;-2094;-563;-523;-154
551501;1;7;0;956;-1282;4148;-1911;32;-129;384
551511;1;7;0;956;-1332;3785;-1797;593;-15;786
551521;1;7;0;956;-1449;3528;-1844;805;-178;948
551531;1;7;0;956;-1570;3545;-2055;664;-554;876
551541;1;7;0;956;-1616;3673;-2422;425;-912;691
551551;1;7;0;956;-1645;3721;-2742;173;-956;521
551561;1;7;0;956;-1562;3744;-2809;45;-684;415
551571;1;7;0;956;-1403;3717;-2695;89;-174;302
551581;1;7;0;956;-1523;3742;-2469;260;350;31
551591;1;7;0;957;-1606;4002;-2348;451;619;-131
551601;1;7;0;957;-1679;4397;-2299;512;814;-65
551611;1;7;0;957;-1747;4690;-2285;472;816;105
551621;1;7;0;957;-1965;4933;-2391;308;673;259
551631;1;7;0;957;-2100;5019;-2510;67;322;294
551641;1;7;0;957;-2111;5073;-2607;-159;56;264
551651;1;7;0;957;-1940;4934;-2651;-189;53;243
551661;1;7;0;957;-1734;4659;-2497;23;382;178
551671;1;7;0;957;-1508;4331;-2255;445;753;16
551681;1;7;0;957;-1317;3980;-2088;825;1078;-149
551691;1;7;0;957;-1174;3586;-1988;1057;1270;-275
551701;1;7;0;957;-1114;3308;-1897;1139;1297;-351
551711;1;7;0;957;-1030;3176;-1854;1096;1136;-367
551721;1;7;0;957;-959;3103;-1776;955;957;-255
551731;1;7;0;957;-891;3054;-1678;803;788;-73
551741;1;7;0;957;-851;3052;-1635;669;683;111
551751;1;7;0;957;-845;2955;-1650;590;663;255
551761;1;7;0;957;-879;2806;-1700;542;682;315
551771;1;7;0;957;-909;2658;-1885;506;841;228
551781;1;7;0;957;-926;2729;-2079;460;934;82
551791;1;7;0;957;-1018;2903;-2139;379;949;-11
551801;1;7;0;957;-1080;3202;-2168;252;985;-31
551811;1;7;0;957;-1073;3370;-2181;237;1149;30
551821;1;7;0;957;-1060;3439;-2121;236;1372;190
551831;1;7;0;957;-1078;3399;-2035;313;1592;305
551841;1;7;0;957;-1060;3342;-1997;419;1741;291
551851;1;7;0;957;-1013;3314;-2000;524;1859;199
551861;1;7;0;957;-989;3339;-2081;584;1936;91
551871;1;7;0;957;-1027;3386;-2146;633;1944;-5
551881;1;7;0;957;-1107;3465;-2232;611;1843;-34
551891;1;7;0;957;-1149;3542;-2261;585;1672;29
551901;1;7;0;957;-1197;3645;-2229;556;1447;175
551911;1;7;0;957;-1211;3755;-2217;531;1281;372
551921;1;7;0;957;-1168;3774;-2247;476;1141;571
551931;1;7;0;957;-1099;3714;-2274;476;1057;727
551941;1;7;0;957;-982;3626;-2297;563;996;789
551951;1;7;0;957;-921;3449;-2299;674;961;696
551961;1;7;0;957;-926;3276;-2311;736;892;512
551971;1;7;0;957;-941;3182;-2326;725;791;292
551981;1;7;0;957;-983;3211;-2271;650;678;130
551991;1;7;0;957;-1038;3276;-2189;540;533;58
552001;1;7;0;957;-1052;3335;-2161;393;462;108
552011;1;7;0;957;-1025;3347;-2126;282;456;304
552021;1;7;0;957;-914;3313;-2069;241;498;487
552031;1;7;0;957;-833;3238;-2061;288;586;569
552041;1;7;0;957;-804;3116;-2083;337;650;554
552051;1;7;0;957;-755;3056;-2154;335;658;447
552061;1;7;0;957;-760;3049;-2225;257;606;334
552071;1;7;0;957;-799;3108;-2278;153;502;225
552081;1;7;0;957;-839;3207;-2364;78;451;146
552091;1;7;0;958;-874;3291;-2445;44;471;79
552101;1;7;0;958;-869;3336;-2425;39;539;42
552111;1;7;0;958;-850;3352;-2374;29;606;31
552121;1;7;0;958;-791;3349;-2262;40;649;39
552131;1;7;0;958;-767;3335;-2193;61;660;33
552141;1;7;0;958;-743;3360;-2210;71;618;23
552151;1;7;0;958;-786;3391;-2234;74;516;42
552161;1;7;0;958;-792;3411;-2272;76;409;136
552171;1;7;0;958;-799;3372;-2334;75;341;243
552181;1;7;0;958;-778;3294;-2378;105;365;312
552191;1;7;0;958;-736;3201;-2425;134;462;315
552201;1;7;0;958;-654;3126;-2455;191;617;214
552211;1;7;0;958;-610;3034;-2407;241;783;44
552221;1;7;0;958;-603;2993;-2380;255;874;-165
552231;1;7;0;958;-669;3045;-2314;243;829;-391
552241;1;7;0;958;-738;3151;-2338;187;652;-555
552251;1;7;0;958;-815;3320;-2322;83;489;-484
552261;1;7;0;958;-868;3367;-2338;-22;349;-237
552271;1;7;0;958;-881;3377;-2309;-82;202;59
552281;1;7;0;958;-814;3311;-2301;-105;129;252
552291;1;7;0;958;-751;3210;-2336;-50;112;314
552301;1;7;0;958;-657;3114;-2373;15;138;230
552311;1;7;0;958;-570;3056;-2409;58;167;43
552321;1;7;0;958;-526;3024;-2420;80;218;-195
552331;1;7;0;958;-589;3028;-2396;88;207;-408
552341;1;7;0;958;-647;3102;-2363;49;150;-530
552351;1;7;0;958;-736;3192;-2306;6;59;-559
552361;1;7;0;958;-794;3323;-2308;-17;-69;-458
552371;1;7;0;958;-819;3397;-2271;-107;-240;-289
552381;1;7;0;958;-766;3390;-2271;-165;-405;-100
552391;1;7;0;958;-674;3329;-2319;-193;-571;52
552401;1;7;0;958;-586;3286;-2346;-204;-683;109
552411;1;7;0;958;-543;3203;-2344;-183;-753;51
552421;1;7;0;958;-545;3152;-2362;-160;-787;-57
552431;1;7;0;958;-575;3106;-2385;-154;-811;-151
552441;1;7;0;958;-552;3093;-2402;-170;-866;-228
552451;1;7;0;958;-534;3089;-2399;-209;-933;-296
552461;1;7;0;958;-555;3091;-2378;-257;-1041;-380
552471;1;7;0;958;-555;3123;-2371;-271;-1138;-483
552481;1;7;0;958;-577;3145;-2345;-267;-1157;-581
552491;1;7;0;958;-644;3175;-2320;-229;-1129;-635
552501;1;7;0;958;-697;3186;-2336;-196;-1135;-673
552511;1;7;0;958;-696;3189;-2394;-192;-1205;-728
552521;1;7;0;958;-594;3210;-2448;-221;-1291;-789
552531;1;7;0;958;-538;3189;-2478;-257;-1322;-881
552541;1;7;0;958;-628;3165;-2459;-288;-1364;-954
552551;1;7;0;958;-775;3188;-2443;-305;-1445;-1034
552561;1;7;0;958;-964;3218;-2483;-359;-1517;-1086
552571;1;7;0;958;-1077;3250;-2490;-471;-1606;-1040
552581;1;7;0;958;-982;3297;-2455;-630;-1637;-903
552591;1;7;0;959;-858;3201;-2286;-777;-1606;-809
552601;1;7;0;959;-742;3171;-2216;-817;-1641;-845
552611;1;7;0;959;-711;3180;-2175;-835;-1747;-1037
552621;1;7;0;959;-827;3234;-2196;-799;-1885;-1215
552631;1;7;0;959;-1034;3334;-2283;-814;-2107;-1295
552641;1;7;0;959;-1189;3500;-2449;-896;-2373;-1161
552651;1;7;0;959;-1098;3746;-2497;-1049;-2489;-1001
552661;1;7;0;959;-950;3795;-2506;-1133;-2302;-813
552671;1;7;0;959;-924;3744;-2547;-1091;-2105;-622
552681;1;7;0;959;-914;3682;-2580;-960;-1931;-650
552691;1;7;0;959;-874;3710;-2526;-823;-1718;-711
552701;1;7;0;959;-1035;3739;-2420;-761;-1434;-745
552711;1;7;0;959;-1167;3814;-2314;-773;-1081;-706
552721;1;7;0;959;-1519;3842;-2144;-808;-820;-697
552731;1;7;0;959;-1871;3880;-2143;-697;-641;-684
552741;1;7;0;959;-1929;3990;-2336;-793;-739;-509
552751;1;7;0;959;-1854;4093;-2553;-800;-731;-80
552761;1;7;0;959;-1739;4166;-2630;-795;-649;335
552771;1;7;0;959;-1567;4093;-2711;-797;-517;622
552781;1;7;0;959;-1529;4057;-2648;-785;-402;745
552791;1;7;0;959;-1610;4004;-2593;-769;-346;683
552801;1;7;0;959;-1597;4033;-2507;-741;-294;531
552811;1;7;0;959;-1600;4061;-2471;-677;-178;341
552821;1;7;0;959;-1557;4023;-2547;-553;59;272
552831;1;7;0;959;-1522;4018;-2592;-408;448;323
552841;1;7;0;959;-1541;3961;-2741;-322;988;287
552851;1;7;0;959;-1490;3893;-2833;-113;1484;178
552861;1;7;0;959;-1473;3860;-2944;-95;1749;-61
552871;1;7;0;959;-1427;3887;-3028;-36;1977;-538
552881;1;7;0;959;-1444;3897;-3104;-87;2061;-960
552891;1;7;0;959;-1435;3852;-3148;-130;1976;-1030
552901;1;7;0;959;-1493;3833;-3146;-172;1865;-900
552911;1;7;0;959;-1587;3919;-2983;-95;1814;-611
552921;1;7;0;959;-1546;4021;-2868;18;1800;-356
552931;1;7;0;959;-1474;4124;-2708;151;1822;-143
552941;1;7;0;959;-1409;4154;-2661;228;1894;-26
552951;1;7;0;959;-1304;4141;-2693;244;1976;-64
552961;1;7;0;959;-1250;4161;-2780;197;2118;-184
552971;1;7;0;959;-1291;4119;-2794;117;2283;-353
552981;1;7;0;959;-1253;4041;-2787;88;2485;-499
552991;1;7;0;959;-1242;3912;-2745;134;2657;-538
553001;1;7;0;959;-1262;3779;-2709;327;2753;-538
553011;1;7;0;959;-1179;3730;-2679;433;2747;-478
553021;1;7;0;959;-1265;3662;-2718;546;2682;-367
553031;1;7;0;959;-1255;3611;-2752;626;2590;-238
553041;1;7;0;959;-1222;3530;-2724;698;2485;-177
553051;1;7;0;959;-1158;3536;-2698;743;2513;-115
553061;1;7;0;959;-1122;3510;-2593;713;2609;-44
553071;1;7;0;959;-1146;3403;-2443;626;2674;53
553081;1;7;0;959;-1047;3334;-2330;522;2632;90
553091;1;7;0;960;-1026;3182;-2222;438;2561;81
553101;1;7;0;960;-977;3047;-2211;408;2418;8
553111;1;7;0;960;-867;2954;-2167;394;2264;-94
553121;1;7;0;960;-732;2895;-2078;387;2253;-210
553131;1;7;0;960;-722;2808;-2024;456;2346;-345
553141;1;7;0;960;-706;2787;-2027;533;2432;-486
553151;1;7;0;960;-813;2720;-1968;602;2483;-499
553161;1;7;0;960;-751;2635;-1932;673;2476;-526
553171;1;7;0;960;-768;2570;-1879;717;2401;-468
553181;1;7;0;960;-693;2483;-1812;729;2280;-424
553191;1;7;0;960;-696;2382;-1701;743;2131;-389
553201;1;7;0;960;-512;2362;-1631;777;2036;-254
553211;1;7;0;960;-530;2277;-1522;825;1970;-124
553221;1;7;0;960;-401;2235;-1445;869;1937;1
553231;1;7;0;960;-397;2167;-1449;944;1916;77
553241;1;7;0;960;-531;2149;-1509;992;1777;2
553251;1;7;0;960;-445;2163;-1612;1030;1642;-143
553261;1;7;0;960;-420;2220;-1703;1040;1570;-243
553271;1;7;0;960;-511;2265;-1715;1008;1580;-259
553281;1;7;0;960;-623;2303;-1713;966;1491;-65
553291;1;7;0;960;-675;2370;-1709;872;1314;223
553301;1;7;0;960;-586;2391;-1726;735;1138;498
553311;1;7;0;960;-508;2287;-1683;620;988;706
553321;1;7;0;960;-438;2169;-1682;560;894;735
553331;1;7;0;960;-362;2097;-1667;540;871;697
553341;1;7;0;960;-374;2180;-1710;581;907;542
553351;1;7;0;960;-373;2306;-1810;631;1049;353
553361;1;7;0;960;-434;2339;-1942;671;1201;226
553371;1;7;0;960;-486;2456;-1937;689;1494;-38
553381;1;7;0;960;-614;2430;-1937;627;1445;294
553391;1;7;0;960;-720;2405;-1906;514;1428;465
553401;1;7;0;960;-767;2300;-1929;381;1273;584
553411;1;7;0;960;-655;2360;-2041;310;1018;597
553421;1;7;0;960;-552;2535;-2214;245;815;430
553431;1;7;0;960;-515;2645;-2272;188;759;208
553441;1;7;0;960;-592;2705;-2292;188;772;103
553451;1;7;0;960;-727;2735;-2282;149;811;30
553461;1;7;0;960;-757;2790;-2288;139;741;34
553471;1;7;0;960;-749;2879;-2375;113;592;70
553481;1;7;0;960;-640;2948;-2451;75;420;76
553491;1;7;0;960;-550;3048;-2536;34;333;17
553501;1;7;0;960;-582;3137;-2534;1;294;2
553511;1;7;0;960;-613;3239;-2586;36;304;25
553521;1;7;0;960;-513;3346;-2683;92;349;136
553531;1;7;0;960;-407;3330;-2768;120;473;254
553541;1;7;0;960;-378;3191;-2754;250;650;363
553551;1;7;0;960;-464;3059;-2738;337;684;434
553561;1;7;0;960;-505;2966;-2713;356;588;424
553571;1;7;0;960;-518;2843;-2717;303;399;369
553581;1;7;0;960;-486;2838;-2742;215;214;326
553591;1;7;0;961;-576;2877;-2726;115;49;273
553601;1;7;0;961;-627;2918;-2728;6;-119;282
553611;1;7;0;961;-578;2963;-2705;-131;-248;332
553621;1;7;0;961;-466;2996;-2689;-267;-331;350
553631;1;7;0;961;-372;2984;-2653;-328;-357;309
553641;1;7;0;961;-381;2971;-2614;-301;-379;180
553651;1;7;0;961;-440;2959;-2592;-255;-412;39
553661;1;7;0;961;-481;2987;-2564;-213;-445;-79
553671;1;7;0;961;-444;3017;-2612;-203;-463;-149
553681;1;7;0;961;-417;3052;-2667;-187;-457;-190
553691;1;7;0;961;-396;3062;-2733;-147;-423;-195
553701;1;7;0;961;-365;3062;-2752;-84;-353;-157
553711;1;7;0;961;-417;3012;-2768;-14;-261;-128
553721;1;7;0;961;-453;3013;-2759;46;-265;-129
553731;1;7;0;961;-417;3022;-2822;27;-295;-165
553741;1;7;0;961;-389;3006;-2854;-6;-336;-175
553751;1;7;0;961;-369;3026;-2866;-69;-312;-165
553761;1;7;0;961;-358;3035;-2857;-100;-243;-91
553771;1;7;0;961;-362;2994;-2777;-106;-148;15
553781;1;7;0;961;-319;2986;-2731;-103;-77;64
553791;1;7;0;961;-315;2967;-2701;-114;-78;38
553801;1;7;0;961;-309;2978;-2706;-159;-106;-25
553811;1;7;0;961;-332;2988;-2733;-213;-160;-92
553821;1;7;0;961;-347;3018;-2789;-277;-220;-138
553831;1;7;0;961;-405;3020;-2808;-310;-258;-152
553841;1;7;0;961;-481;3039;-2847;-318;-276;-152
553851;1;7;0;961;-423;2972;-2838;-315;-209;-145
553861;1;7;0;961;-424;2989;-2758;-265;-70;-123
553871;1;7;0;961;-404;2963;-2689;-195;25;-135
553881;1;7;0;961;-401;2977;-2677;-162;20;-199
553891;1;7;0;961;-387;3009;-2666;-156;-36;-252
553901;1;7;0;961;-425;3016;-2653;-149;-131;-266
553911;1;7;0;961;-454;3003;-2681;-162;-223;-259
553921;1;7;0;961;-427;2963;-2714;-160;-299;-268
553931;1;7;0;961;-425;2960;-2775;-167;-352;-291
553941;1;7;0;961;-447;2945;-2785;-166;-373;-307
553951;1;7;0;961;-475;2955;-2778;-183;-387;-333
553961;1;7;0;961;-534;2950;-2755;-197;-411;-346
553971;1;7;0;961;-555;2971;-2699;-211;-475;-334
553981;1;7;0;961;-597;3033;-2704;-204;-556;-325
553991;1;7;0;961;-484;3052;-2753;-238;-582;-285
554001;1;7;0;961;-400;3034;-2795;-288;-553;-226
554011;1;7;0;961;-391;2966;-2766;-328;-524;-221
554021;1;7;0;961;-398;2946;-2710;-340;-506;-248
554031;1;7;0;961;-482;2909;-2672;-324;-511;-300
554041;1;7;0;961;-534;2890;-2691;-346;-548;-371
554051;1;7;0;961;-597;2908;-2741;-388;-613;-438
554061;1;7;0;961;-627;2891;-2738;-472;-672;-499
554071;1;7;0;961;-668;2817;-2701;-520;-750;-570
554081;1;7;0;961;-704;2836;-2682;-537;-872;-643
554091;1;7;0;962;-765;2915;-2704;-572;-1050;-677
554101;1;7;0;962;-770;2972;-2688;-615;-1169;-647
554111;1;7;0;962;-820;3040;-2637;-666;-1263;-539
554121;1;7;0;962;-849;3074;-2530;-774;-1324;-403
554131;1;7;0;962;-826;3032;-2431;-875;-1453;-257
554141;1;7;0;962;-763;2996;-2353;-973;-1624;-199
554151;1;7;0;962;-746;2965;-2345;-1023;-1792;-261
554161;1;7;0;962;-832;2965;-2248;-913;-1866;-245
554171;1;7;0;962;-913;2892;-2109;-822;-1999;-209
554181;1;7;0;962;-926;2904;-2007;-700;-2164;-140
554191;1;7;0;962;-811;2795;-1946;-633;-2264;-63
554201;1;7;0;962;-694;2558;-1917;-617;-2211;-105
554211;1;7;0;962;-730;2501;-1889;-600;-2260;-340
554221;1;7;0;962;-685;2525;-1954;-681;-2415;-605
554231;1;7;0;962;-694;2601;-1952;-736;-2588;-879
554241;1;7;0;962;-854;2841;-1977;-759;-2992;-1086
554251;1;7;0;962;-845;3037;-2046;-864;-3204;-964
554261;1;7;0;962;-865;3132;-2028;-902;-3201;-571
554271;1;7;0;962;-964;3130;-2003;-970;-3093;-92
554281;1;7;0;962;-864;2988;-2027;-1045;-2888;410
554291;1;7;0;962;-654;2693;-1998;-1123;-2650;776
554301;1;7;0;962;-460;2333;-1961;-1149;-2415;817
554311;1;7;0;962;-300;2066;-1937;-1116;-2303;487
554321;1;7;0;962;-372;1924;-1909;-1050;-2374;-103
554331;1;7;0;962;-597;1962;-1901;-1043;-2614;-759
554341;1;7;0;962;-877;2064;-2067;-1163;-2959;-1201
554351;1;7;0;962;-1053;2323;-2120;-1170;-3197;-1245
554361;1;7;0;962;-1036;2531;-2164;-1188;-3061;-886
554371;1;7;0;962;-963;2619;-2171;-1183;-2646;-404
554381;1;7;0;962;-772;2553;-2236;-1171;-2162;61
554391;1;7;0;962;-645;2508;-2277;-1227;-1877;251
554401;1;7;0;962;-507;2451;-2259;-1266;-1708;63
554411;1;7;0;962;-451;2319;-2096;-1224;-1521;-275
554421;1;7;0;962;-419;2130;-1811;-1087;-1308;-687
554431;1;7;0;962;-429;2105;-1660;-1054;-1265;-966
554441;1;7;0;962;-763;2358;-1599;-1141;-1594;-1250
554451;1;7;0;962;-683;2632;-1784;-1322;-1896;-1243
554461;1;7;0;962;-743;2835;-2001;-1435;-1843;-902
554471;1;7;0;962;-1009;3026;-2176;-1513;-1586;-553
554481;1;7;0;962;-1203;3348;-2295;-1735;-1658;-411
554491;1;7;0;962;-1353;3513;-2251;-2060;-2030;-469
554501;1;7;0;962;-1411;3542;-2035;-2353;-2529;-441
554511;1;7;0;962;-1411;3293;-1674;-2411;-2853;-155
554521;1;7;0;962;-989;2865;-1397;-2132;-2747;104
554531;1;7;0;962;-723;2537;-1305;-1713;-2315;167
554541;1;7;0;962;-447;2241;-1422;-1227;-1807;-19
554551;1;7;0;962;-478;2315;-1660;-696;-1496;-266
554561;1;7;0;962;-882;2651;-2031;-362;-1649;-511
554571;1;7;0;962;-1166;3461;-2359;-505;-1705;-894
554581;1;7;0;962;-1470;3821;-2463;-885;-1858;-1121
554591;1;7;0;963;-1527;3946;-2400;-1287;-1839;-1154
554601;1;7;0;963;-1506;3729;-2229;-1514;-1612;-1037
554611;1;7;0;963;-1383;3271;-1983;-1403;-1324;-791
554621;1;7;0;963;-1292;3058;-1704;-1210;-1232;-675
554631;1;7;0;963;-1290;2968;-1508;-994;-1415;-639
554641;1;7;0;963;-1469;3146;-1652;-953;-1962;-567
554651;1;7;0;963;-1712;3382;-1988;-969;-2527;-495
554661;1;7;0;963;-1798;3800;-2437;-966;-2977;-333
554671;1;7;0;963;-1678;4133;-2807;-963;-2789;-32
554681;1;7;0;963;-1365;4127;-2847;-969;-1883;181
554691;1;7;0;963;-1048;3933;-2672;-850;-683;224
554701;1;7;0;963;-1142;3609;-2345;-561;120;-46
554711;1;7;0;963;-1349;3457;-2181;-292;199;-557
554721;1;7;0;963;-1496;3536;-2027;-307;-178;-758
554731;1;7;0;963;-1770;3713;-2018;-548;-789;-578
554741;1;7;0;963;-1901;3962;-1987;-934;-1448;34
554751;1;7;0;963;-1745;4025;-1967;-1055;-1591;644
554761;1;7;0;963;-1541;4031;-1933;-967;-1266;1126
554771;1;7;0;963;-1284;3885;-2050;-764;-640;1202
554781;1;7;0;963;-1117;3609;-2141;-532;-167;759
554791;1;7;0;963;-1141;3555;-2242;-304;-191;147
554801;1;7;0;963;-1457;3608;-2297;-139;-519;-314
554811;1;7;0;963;-1757;3902;-2141;-107;-922;-263
554821;1;7;0;963;-2017;4206;-1934;-206;-1110;144
554831;1;7;0;963;-2031;4271;-1793;-367;-1050;711
554841;1;7;0;963;-1811;4157;-1847;-470;-872;1145
554851;1;7;0;963;-1376;3854;-2112;-407;-507;1210
554861;1;7;0;963;-1206;3501;-2297;-142;-21;770
554871;1;7;0;963;-1337;3321;-2501;324;240;88
554881;1;7;0;963;-1661;3464;-2538;690;131;-530
554891;1;7;0;963;-1949;3817;-2502;804;-81;-729
554901;1;7;0;963;-2135;4202;-2377;698;-94;-357
554911;1;7;0;963;-2313;4498;-2258;506;-32;346
554921;1;7;0;963;-2252;4646;-2200;258;-49;920
554931;1;7;0;963;-2089;4698;-2303;50;-66;1165
554941;1;7;0;963;-1976;4793;-2604;-74;-12;1010
554951;1;7;0;963;-1894;4910;-2816;-150;-17;728
554961;1;7;0;963;-1814;4950;-2960;93;325;504
554971;1;7;0;963;-1669;4815;-2959;464;691;454
554981;1;7;0;963;-1593;4501;-2674;919;1087;528
554991;1;7;0;963;-1512;4120;-2379;1243;1402;609
555001;1;7;0;963;-1449;3749;-2204;1381;1519;651
555011;1;7;0;963;-1365;3445;-2152;1389;1447;667
555021;1;7;0;963;-1244;3351;-2148;1212;1275;694
555031;1;7;0;963;-1128;3363;-2090;977;1174;756
555041;1;7;0;963;-1096;3413;-1997;845;1097;844
555051;1;7;0;963;-1087;3271;-1862;804;1086;910
555061;1;7;0;963;-1171;3016;-1741;779;1029;960
555071;1;7;0;963;-1178;2790;-1676;698;899;1015
555081;1;7;0;963;-1217;2659;-1700;589;757;1058
555091;1;7;0;964;-1209;2674;-1727;496;668;1055
555101;1;7;0;964;-1175;2852;-1757;483;670;951
555111;1;7;0;964;-1198;3046;-1798;488;762;708
555121;1;7;0;964;-1228;3241;-1852;469;849;483
555131;1;7;0;964;-1197;3350;-1850;453;949;302
555141;1;7;0;964;-1197;3393;-1837;422;1026;208
555151;1;7;0;964;-1201;3381;-1815;386;1106;178
555161;1;7;0;964;-1232;3335;-1826;384;1139;211
555171;1;7;0;964;-1236;3332;-1852;412;1097;304
555181;1;7;0;964;-1206;3392;-1940;500;1062;433
555191;1;7;0;964;-1137;3422;-2042;678;1219;568
555201;1;7;0;964;-1018;3456;-2164;743;1387;751
555211;1;7;0;964;-915;3410;-2225;814;1638;871
555221;1;7;0;964;-859;3320;-2273;946;1890;847
555231;1;7;0;964;-837;3276;-2267;874;1938;793
555241;1;7;0;964;-834;3252;-2255;786;1897;683
555251;1;7;0;964;-856;3265;-2242;590;1731;616
555261;1;7;0;964;-912;3296;-2249;447;1639;595
555271;1;7;0;964;-930;3350;-2264;368;1604;598
555281;1;7;0;964;-928;3416;-2330;352;1577;590
555291;1;7;0;964;-948;3496;-2389;352;1558;583
555301;1;7;0;964;-900;3537;-2440;338;1582;591
555311;1;7;0;964;-904;3482;-2385;364;1627;595
555321;1;7;0;964;-866;3429;-2331;423;1657;585
555331;1;7;0;964;-820;3344;-2316;487;1656;542
555341;1;7;0;964;-789;3281;-2264;528;1591;498
555351;1;7;0;964;-777;3221;-2243;565;1472;433
555361;1;7;0;964;-788;3189;-2247;600;1347;366
555371;1;7;0;964;-783;3200;-2245;605;1247;307
555381;1;7;0;964;-799;3177;-2259;579;1155;265
555391;1;7;0;964;-817;3216;-2237;547;1055;239
555401;1;7;0;964;-805;3275;-2236;517;965;229
555411;1;7;0;964;-775;3310;-2231;489;882;250
555421;1;7;0;964;-789;3325;-2223;465;841;287
555431;1;7;0;964;-748;3317;-2191;413;801;335
555441;1;7;0;964;-719;3292;-2196;357;771;373
555451;1;7;0;964;-690;3259;-2200;306;710;366
555461;1;7;0;964;-661;3209;-2277;259;620;300
555471;1;7;0;964;-644;3188;-2353;222;546;212
555481;1;7;0;964;-634;3173;-2421;173;496;94
555491;1;7;0;964;-632;3200;-2416;150;504;-19
555501;1;7;0;964;-667;3221;-2390;148;563;-148
555511;1;7;0;964;-704;3222;-2388;159;609;-265
555521;1;7;0;964;-725;3257;-2357;147;603;-321
555531;1;7;0;964;-756;3280;-2351;124;573;-295
555541;1;7;0;964;-739;3298;-2356;92;506;-170
555551;1;7;0;964;-741;3294;-2383;76;448;-31
555561;1;7;0;964;-700;3260;-2419;33;404;101
555571;1;7;0;964;-696;3219;-2461;19;316;181
555581;1;7;0;964;-658;3200;-2464;-10;224;209
555591;1;7;0;965;-610;3162;-2465;-50;154;173
555601;1;7;0;965;-551;3143;-2458;-83;106;98
555611;1;7;0;965;-508;3118;-2423;-110;87;-21
555621;1;7;0;965;-517;3094;-2415;-110;70;-142
555631;1;7;0;965;-542;3124;-2401;-88;26;-255
555641;1;7;0;965;-588;3128;-2402;-73;-12;-355
555651;1;7;0;965;-611;3125;-2399;-80;-44;-409
555661;1;7;0;965;-639;3130;-2404;-98;-77;-440
555671;1;7;0;965;-654;3203;-2404;-131;-154;-426
555681;1;7;0;965;-656;3257;-2415;-169;-241;-392
555691;1;7;0;965;-653;3294;-2438;-221;-300;-327
555701;1;7;0;965;-637;3287;-2424;-245;-329;-240
555711;1;7;0;965;-621;3264;-2400;-273;-307;-178
555721;1;7;0;965;-597;3200;-2384;-276;-280;-147
555731;1;7;0;965;-587;3109;-2388;-292;-275;-182
555741;1;7;0;965;-539;3060;-2395;-345;-328;-272
555751;1;7;0;965;-509;3010;-2397;-412;-389;-444
555761;1;7;0;965;-460;3005;-2486;-471;-448;-680
555771;1;7;0;965;-437;3008;-2591;-555;-457;-897
555781;1;7;0;965;-409;3009;-2628;-662;-372;-1089
555791;1;7;0;965;-396;2960;-2670;-729;-217;-1256
555801;1;7;0;965;-430;2885;-2655;-773;-61;-1441
555811;1;7;0;965;-547;2844;-2614;-781;3;-1705
555821;1;7;0;965;-668;2889;-2508;-808;-164;-1940
555831;1;7;0;965;-716;3097;-2451;-922;-484;-2102
555841;1;7;0;965;-730;3282;-2391;-1170;-831;-2090
555851;1;7;0;965;-702;3444;-2311;-1394;-1220;-1871
555861;1;7;0;965;-705;3508;-2197;-1596;-1628;-1571
555871;1;7;0;965;-656;3632;-2113;-1722;-2043;-1256
555881;1;7;0;965;-571;3660;-2146;-1719;-2348;-1042
555891;1;7;0;965;-518;3640;-2251;-1603;-2524;-852
555901;1;7;0;965;-373;3584;-2523;-1460;-2535;-760
555911;1;7;0;965;-333;3523;-2725;-1290;-2362;-856
555921;1;7;0;965;-480;3574;-2869;-1259;-2223;-1069
555931;1;7;0;965;-742;3730;-2981;-1303;-2171;-1358
555941;1;7;0;965;-1071;3954;-3021;-1323;-2223;-1581
555951;1;7;0;965;-1441;4191;-2960;-1262;-2284;-1669
555961;1;7;0;965;-1608;4464;-2891;-1192;-2217;-1668
555971;1;7;0;965;-1750;4644;-2774;-1166;-2019;-1542
555981;1;7;0;965;-1909;4559;-2634;-1198;-1807;-1353
555991;1;7;0;965;-2017;4350;-2552;-1239;-1766;-1203
556001;1;7;0;965;-2004;4195;-2619;-1231;-1843;-1206
556011;1;7;0;965;-2015;4224;-2758;-1125;-1872;-1243
556021;1;7;0;965;-2013;4371;-2835;-1077;-1718;-1176
556031;1;7;0;965;-1902;4542;-2802;-936;-1299;-936
556041;1;7;0;965;-1699;4618;-2703;-692;-591;-494
556051;1;7;0;965;-1662;4415;-2559;-497;185;-113
556061;1;7;0;965;-1156;4436;-2605;-274;723;261
556071;1;7;0;965;-1088;4157;-2612;-77;1199;344
556081;1;7;0;965;-1143;3806;-2731;98;1300;184
556091;1;7;0;966;-1128;3712;-2838;139;1169;-171
556101;1;7;0;966;-1333;3671;-2848;107;944;-603
556111;1;7;0;966;-1605;3728;-2842;57;640;-1065
556121;1;7;0;966;-1815;3877;-2770;10;429;-1240
556131;1;7;0;966;-1907;3985;-2655;-28;358;-1005
556141;1;7;0;966;-1890;4075;-2493;2;490;-461
556151;1;7;0;966;-1774;4055;-2353;117;678;1
556161;1;7;0;966;-1638;4055;-2279;320;940;363
556171;1;7;0;966;-1455;4142;-2219;496;1087;541
556181;1;7;0;966;-1373;4165;-2215;600;1128;554
556191;1;7;0;966;-1318;4142;-2320;738;1204;508
556201;1;7;0;966;-1300;4017;-2393;853;1390;371
556211;1;7;0;966;-1317;3849;-2431;872;1505;281
556221;1;7;0;966;-1307;3636;-2487;858;1640;240
556231;1;7;0;966;-1269;3459;-2477;884;1762;317
556241;1;7;0;966;-1269;3307;-2412;911;1881;458
556251;1;7;0;966;-1284;3226;-2379;964;1923;522
556261;1;7;0;966;-1246;3220;-2340;966;1797;485
556271;1;7;0;966;-1157;3268;-2360;971;1624;488
556281;1;7;0;966;-1110;3270;-2437;970;1528;495
556291;1;7;0;966;-1008;3303;-2437;936;1641;525
556301;1;7;0;966;-986;3262;-2391;884;1764;510
556311;1;7;0;966;-1041;3193;-2306;864;1840;497
556321;1;7;0;966;-956;3092;-2284;849;1914;420
556331;1;7;0;966;-900;2998;-2238;861;1975;383
556341;1;7;0;966;-881;2989;-2258;892;1988;371
556351;1;7;0;966;-856;2980;-2248;858;1977;345
556361;1;7;0;966;-933;2935;-2154;818;1901;353
556371;1;7;0;966;-902;2883;-2055;775;1808;483
556381;1;7;0;966;-745;2737;-1970;728;1873;721
556391;1;7;0;966;-658;2598;-1909;730;1902;904
556401;1;7;0;966;-557;2506;-1853;739;1906;1057
556411;1;7;0;966;-476;2366;-1729;743;1934;1164
556421;1;7;0;966;-551;2130;-1618;781;1861;1200
556431;1;7;0;966;-590;2194;-1559;841;1659;1256
556441;1;7;0;966;-623;2281;-1545;850;1329;1313
556451;1;7;0;966;-629;2322;-1616;773;1076;1234
556461;1;7;0;966;-536;2337;-1698;676;980;1113
556471;1;7;0;966;-455;2338;-1734;595;1093;1014
556481;1;7;0;966;-525;2201;-1651;495;1207;991
556491;1;7;0;966;-449;2107;-1561;462;1228;865
556501;1;7;0;966;-460;1980;-1525;487;1221;791
556511;1;7;0;966;-477;1994;-1552;593;1157;676
556521;1;7;0;966;-469;2034;-1658;726;1096;589
556531;1;7;0;966;-436;2163;-1805;837;1020;505
556541;1;7;0;966;-415;2377;-1884;822;1033;480
556551;1;7;0;966;-526;2422;-1817;712;1017;493
556561;1;7;0;966;-638;2403;-1720;595;1000;570
556571;1;7;0;966;-617;2356;-1703;498;987;673
556581;1;7;0;966;-555;2269;-1706;430;943;782
556591;1;7;0;967;-456;2197;-1713;407;875;775
556601;1;7;0;967;-388;2235;-1797;416;814;580
556611;1;7;0;967;-422;2307;-1835;413;751;274
556621;1;7;0;967;-476;2408;-1939;406;682;-7
556631;1;7;0;967;-563;2557;-2067;385;595;-230
556641;1;7;0;967;-626;2736;-2198;350;501;-341
556651;1;7;0;967;-629;2844;-2293;279;466;-367
556661;1;7;0;967;-674;2953;-2381;214;441;-368
556671;1;7;0;967;-763;3074;-2415;159;379;-276
556681;1;7;0;967;-860;3161;-2398;99;220;-123
556691;1;7;0;967;-834;3237;-2408;90;36;109
556701;1;7;0;967;-761;3298;-2445;107;-20;301
556711;1;7;0;967;-668;3277;-2500;126;17;500
556721;1;7;0;967;-583;3229;-2540;118;111;639
556731;1;7;0;967;-569;3152;-2497;93;159;682
556741;1;7;0;967;-564;3112;-2436;85;134;665
556751;1;7;0;967;-580;3092;-2369;98;38;601
556761;1;7;0;967;-571;3081;-2410;147;-35;538
556771;1;7;0;967;-556;3063;-2515;161;-132;528
556781;1;7;0;967;-503;3046;-2628;129;-194;532
556791;1;7;0;967;-461;2991;-2699;112;-188;539
556801;1;7;0;967;-404;2984;-2747;90;-149;513
556811;1;7;0;967;-365;2952;-2804;75;-83;452
556821;1;7;0;967;-363;2894;-2810;76;-11;349
556831;1;7;0;967;-292;2900;-2793;76;22;210
556841;1;7;0;967;-316;2892;-2739;103;105;59
556851;1;7;0;967;-342;2921;-2716;132;76;-77
556861;1;7;0;967;-368;2965;-2704;146;11;-197
556871;1;7;0;967;-444;3000;-2719;119;-54;-261
556881;1;7;0;967;-500;3034;-2767;100;-91;-275
556891;1;7;0;967;-583;3060;-2755;56;-76;-285
556901;1;7;0;967;-621;3101;-2691;-17;-58;-313
556911;1;7;0;967;-618;3165;-2624;-83;-85;-275
556921;1;7;0;967;-622;3181;-2611;-148;-141;-157
556931;1;7;0;967;-591;3201;-2590;-176;-185;-6
556941;1;7;0;967;-512;3165;-2642;-163;-154;101
556951;1;7;0;967;-414;3139;-2682;-141;-64;165
556961;1;7;0;967;-356;3092;-2623;-99;4;200
556971;1;7;0;967;-310;3048;-2587;-52;36;192
556981;1;7;0;967;-296;3027;-2554;1;31;141
556991;1;7;0;967;-302;3033;-2616;29;-27;85
557001;1;7;0;967;-314;3049;-2672;2;-112;42
557011;1;7;0;967;-354;3057;-2731;-47;-233;31
557021;1;7;0;967;-385;3057;-2731;-123;-323;12
557031;1;7;0;967;-432;3029;-2691;-199;-390;0
557041;1;7;0;967;-412;3014;-2668;-254;-452;-25
557051;1;7;0;967;-375;3017;-2653;-277;-459;-44
557061;1;7;0;967;-357;3002;-2632;-238;-392;-102
557071;1;7;0;967;-338;3042;-2643;-203;-311;-185
557081;1;7;0;967;-344;3052;-2651;-163;-194;-313
557091;1;7;0;968;-389;3052;-2701;-139;-107;-435
557101;1;7;0;968;-435;3035;-2723;-146;-57;-513
557111;1;7;0;968;-474;3062;-2741;-185;-33;-509
557121;1;7;0;968;-494;3084;-2725;-202;-54;-447
557131;1;7;0;968;-519;3091;-2721;-168;-57;-359
557141;1;7;0;968;-510;3113;-2725;-139;-51;-281
557151;1;7;0;968;-492;3127;-2690;-114;-21;-203
557161;1;7;0;968;-484;3120;-2678;-79;4;-160
557171;1;7;0;968;-486;3121;-2665;-67;19;-104
557181;1;7;0;968;-461;3116;-2633;-79;49;-58
557191;1;7;0;968;-423;3090;-2650;-63;81;-38
557201;1;7;0;968;-398;3075;-2669;-33;109;-30
557211;1;7;0;968;-379;3071;-2718;-5;115;-42
557221;1;7;0;968;-364;3071;-2703;4;125;-49
557231;1;7;0;968;-402;3060;-2673;-15;92;-51
557241;1;7;0;968;-435;3039;-2636;-19;13;-69
557251;1;7;0;968;-473;3058;-2625;-55;-87;-71
557261;1;7;0;968;-482;3049;-2656;-87;-170;-61
557271;1;7;0;968;-507;3052;-2625;-111;-239;-42
557281;1;7;0;968;-507;3063;-2651;-122;-276;-16
557291;1;7;0;968;-512;3051;-2655;-137;-277;-9
557301;1;7;0;968;-505;3037;-2682;-133;-289;-38
557311;1;7;0;968;-516;3036;-2664;-149;-290;-75
557321;1;7;0;968;-507;3023;-2626;-161;-324;-128
557331;1;7;0;968;-557;3022;-2583;-196;-376;-191
557341;1;7;0;968;-588;3015;-2560;-239;-436;-248
557351;1;7;0;968;-578;3011;-2574;-280;-506;-274
557361;1;7;0;968;-591;3020;-2571;-318;-572;-271
557371;1;7;0;968;-636;3018;-2561;-348;-650;-261
557381;1;7;0;968;-687;3007;-2523;-401;-710;-249
557391;1;7;0;968;-706;2989;-2529;-461;-800;-216
557401;1;7;0;968;-638;2935;-2540;-542;-887;-262
557411;1;7;0;968;-603;2953;-2502;-619;-976;-366
557421;1;7;0;968;-618;2974;-2453;-669;-1070;-503
557431;1;7;0;968;-625;2983;-2367;-723;-1180;-633
557441;1;7;0;968;-725;2977;-2340;-722;-1318;-734
557451;1;7;0;968;-829;2991;-2338;-736;-1485;-783
557461;1;7;0;968;-858;3027;-2368;-750;-1646;-786
557471;1;7;0;968;-877;3106;-2372;-793;-1819;-723
557481;1;7;0;968;-953;3126;-2340;-839;-1958;-545
557491;1;7;0;968;-876;3097;-2287;-864;-2055;-268
557501;1;7;0;968;-794;3020;-2238;-851;-2000;53
557511;1;7;0;968;-704;2890;-2189;-838;-1879;313
557521;1;7;0;968;-584;2711;-2155;-752;-1758;373
557531;1;7;0;968;-465;2644;-2213;-714;-1762;194
557541;1;7;0;968;-423;2556;-2264;-702;-1836;-139
557551;1;7;0;968;-501;2564;-2286;-689;-1988;-564
557561;1;7;0;968;-657;2686;-2299;-608;-2093;-895
557571;1;7;0;968;-780;2943;-2299;-709;-2205;-1024
557581;1;7;0;968;-837;3052;-2246;-847;-2206;-855
557591;1;7;0;969;-819;2999;-2231;-1026;-2140;-491
557601;1;7;0;969;-724;2907;-2266;-1148;-2021;-173
557611;1;7;0;969;-498;2637;-2221;-1135;-1693;36
557621;1;7;0;969;-345;2388;-2068;-938;-1287;-40
557631;1;7;0;969;-293;2260;-1973;-759;-1048;-351
557641;1;7;0;969;-395;2280;-1913;-656;-1204;-799
557651;1;7;0;969;-606;2506;-1928;-620;-1594;-1159
557661;1;7;0;969;-731;2748;-1975;-692;-1888;-1224
557671;1;7;0;969;-792;2868;-1950;-796;-1968;-1009
557681;1;7;0;969;-850;2881;-1808;-909;-1829;-654
557691;1;7;0;969;-744;2684;-1648;-1011;-1638;-345
557701;1;7;0;969;-516;2350;-1605;-1070;-1499;-287
557711;1;7;0;969;-258;2049;-1615;-903;-1288;-441
557721;1;7;0;969;-283;1890;-1640;-692;-1333;-788
557731;1;7;0;969;-427;1972;-1811;-479;-1497;-1164
557741;1;7;0;969;-563;2221;-2066;-345;-1688;-1423
557751;1;7;0;969;-733;2525;-2272;-289;-1672;-1391
557761;1;7;0;969;-874;2775;-2391;-363;-1543;-1241
557771;1;7;0;969;-776;2808;-2388;-570;-1315;-1066
557781;1;7;0;969;-729;2650;-2272;-826;-1083;-1096
557791;1;7;0;969;-662;2471;-2076;-1081;-981;-1226
557801;1;7;0;969;-794;2337;-1871;-1304;-1092;-1415
557811;1;7;0;969;-993;2331;-1847;-1365;-1323;-1463
557821;1;7;0;969;-1105;2518;-1926;-1311;-1637;-1341
557831;1;7;0;969;-1083;2817;-2120;-1177;-1850;-1019
557841;1;7;0;969;-1006;3153;-2282;-1112;-1843;-586
557851;1;7;0;969;-900;3283;-2315;-1077;-1623;-70
557861;1;7;0;969;-795;3260;-2260;-1037;-1330;314
557871;1;7;0;969;-727;3149;-2085;-997;-1019;480
557881;1;7;0;969;-761;3006;-1966;-943;-829;363
557891;1;7;0;969;-1002;2973;-1966;-955;-927;10
557901;1;7;0;969;-1125;3096;-2197;-1068;-1164;-404
557911;1;7;0;969;-1171;3214;-2548;-1157;-1166;-617
557921;1;7;0;969;-1212;3383;-2800;-1181;-858;-685
557931;1;7;0;969;-1166;3434;-2893;-1140;-257;-727
557941;1;7;0;969;-1169;3418;-2865;-989;205;-856
557951;1;7;0;969;-1278;3448;-2654;-763;403;-1065
557961;1;7;0;969;-1270;3661;-2527;-528;302;-1086
557971;1;7;0;969;-1330;3827;-2352;-412;73;-739
557981;1;7;0;969;-1354;3835;-2239;-452;-136;-138
557991;1;7;0;969;-1371;3806;-2184;-609;-291;492
558001;1;7;0;969;-1374;3703;-2116;-666;-460;966
558011;1;7;0;969;-1376;3664;-2090;-658;-743;1142
558021;1;7;0;969;-1309;3670;-2132;-655;-1008;1040
558031;1;7;0;969;-1276;3763;-2290;-767;-1435;826
558041;1;7;0;969;-1321;3877;-2430;-1002;-1766;550
558051;1;7;0;969;-1300;4009;-2506;-1215;-1966;510
558061;1;7;0;969;-1308;4019;-2426;-1342;-1863;645
558071;1;7;0;969;-1147;3945;-2301;-1232;-1350;934
558081;1;7;0;969;-1152;3645;-2066;-914;-623;1245
558091;1;7;0;970;-1117;3378;-1930;-466;-41;1375
