timestamp;subject_id;activity;label;seq;ax;ay;az;gx;gy;gz
660091;1;8;0;1174;-661;3584;-1789;-288;-168;-93
660101;1;8;0;1174;-686;3648;-1740;-282;-119;-66
660111;1;8;0;1174;-664;3678;-1708;-260;-60;-39
660121;1;8;0;1174;-619;3715;-1692;-227;-9;-28
660131;1;8;0;1174;-562;3747;-1686;-186;45;4
660141;1;8;0;1174;-514;3727;-1685;-154;77;52
660151;1;8;0;1174;-501;3671;-1668;-158;55;86
660161;1;8;0;1174;-499;3660;-1635;-177;-89;73
660171;1;8;0;1174;-491;3658;-1676;-225;-283;40
660181;1;8;0;1174;-520;3656;-1714;-281;-425;57
660191;1;8;0;1174;-507;3621;-1740;-326;-457;105
660201;1;8;0;1174;-485;3621;-1754;-336;-447;100
660211;1;8;0;1174;-467;3638;-1753;-282;-378;61
660221;1;8;0;1174;-407;3564;-1805;-204;-260;-9
660231;1;8;0;1174;-397;3517;-1857;-77;-121;-115
660241;1;8;0;1174;-409;3491;-1849;70;-8;-236
660251;1;8;0;1174;-412;3485;-1802;217;70;-364
660261;1;8;0;1174;-464;3528;-1766;345;117;-455
660271;1;8;0;1174;-479;3606;-1782;390;145;-482
660281;1;8;0;1174;-482;3643;-1744;367;225;-484
660291;1;8;0;1174;-497;3602;-1671;356;287;-520
660301;1;8;0;1174;-483;3604;-1678;334;334;-597
660311;1;8;0;1174;-449;3577;-1702;330;452;-646
660321;1;8;0;1174;-447;3528;-1768;313;626;-675
660331;1;8;0;1174;-474;3513;-1783;316;678;-712
660341;1;8;0;1174;-530;3533;-1796;343;661;-796
660351;1;8;0;1174;-583;3614;-1806;357;614;-880
660361;1;8;0;1174;-582;3683;-1754;376;616;-975
660371;1;8;0;1174;-561;3715;-1691;459;680;-1071
660381;1;8;0;1174;-547;3690;-1676;540;795;-1142
660391;1;8;0;1174;-528;3638;-1678;615;919;-1172
660401;1;8;0;1174;-522;3605;-1693;660;1004;-1185
660411;1;8;0;1174;-543;3585;-1719;668;1023;-1206
660421;1;8;0;1174;-529;3599;-1721;624;1013;-1211
660431;1;8;0;1174;-552;3627;-1737;576;1008;-1202
660441;1;8;0;1174;-561;3621;-1752;549;1009;-1194
660451;1;8;0;1174;-549;3608;-1788;554;1022;-1209
660461;1;8;0;1174;-578;3585;-1782;577;1061;-1214
660471;1;8;0;1174;-603;3533;-1759;662;1095;-1249
660481;1;8;0;1174;-591;3543;-1733;711;1093;-1272
660491;1;8;0;1174;-583;3548;-1735;765;1088;-1292
660501;1;8;0;1174;-572;3592;-1740;795;1046;-1253
660511;1;8;0;1174;-490;3659;-1750;790;1007;-1150
660521;1;8;0;1174;-414;3657;-1779;791;1039;-1055
660531;1;8;0;1174;-397;3621;-1830;856;1046;-1032
660541;1;8;0;1174;-443;3587;-1839;954;1018;-1131
660551;1;8;0;1174;-557;3607;-1883;1027;957;-1230
660561;1;8;0;1174;-631;3641;-1914;1038;945;-1255
660571;1;8;0;1174;-660;3656;-1919;995;976;-1301
660581;1;8;0;1174;-628;3678;-1902;956;1019;-1345
660591;1;8;0;1175;-577;3744;-1941;911;1094;-1354
660601;1;8;0;1175;-559;3738;-1916;886;1175;-1332
660611;1;8;0;1175;-538;3690;-1923;875;1248;-1347
660621;1;8;0;1175;-535;3636;-1900;866;1279;-1421
660631;1;8;0;1175;-524;3581;-1957;829;1290;-1522
660641;1;8;0;1175;-515;3497;-2020;793;1315;-1616
660651;1;8;0;1175;-531;3432;-2079;750;1338;-1676
660661;1;8;0;1175;-595;3378;-2067;716;1394;-1727
660671;1;8;0;1175;-644;3331;-2020;716;1442;-1760
660681;1;8;0;1175;-645;3271;-1984;718;1464;-1803
660691;1;8;0;1175;-658;3279;-1966;730;1478;-1872
660701;1;8;0;1175;-628;3301;-1968;717;1510;-1907
660711;1;8;0;1175;-649;3337;-1969;691;1554;-1956
660721;1;8;0;1175;-704;3389;-1956;604;1546;-1992
660731;1;8;0;1175;-815;3480;-2012;525;1504;-2014
660741;1;8;0;1175;-933;3679;-2137;414;1377;-1968
660751;1;8;0;1175;-1018;3918;-2285;225;1260;-1833
660761;1;8;0;1175;-1111;4016;-2427;50;1292;-1528
660771;1;8;0;1175;-1171;3960;-2442;-25;1485;-1095
660781;1;8;0;1175;-1083;3767;-2407;85;1851;-677
660791;1;8;0;1175;-820;3507;-2399;338;2353;-346
660801;1;8;0;1175;-565;3204;-2393;695;2882;-197
660811;1;8;0;1175;-463;2924;-2460;1017;3103;-341
660821;1;8;0;1175;-595;2869;-2473;1168;2833;-701
660831;1;8;0;1175;-736;2968;-2499;1075;2244;-1152
660841;1;8;0;1175;-833;3139;-2609;796;1634;-1474
660851;1;8;0;1175;-893;3290;-2724;444;1270;-1543
660861;1;8;0;1175;-913;3279;-2853;98;1188;-1355
660871;1;8;0;1175;-902;3093;-2799;-142;1343;-1086
660881;1;8;0;1175;-915;2849;-2737;-193;1582;-1009
660891;1;8;0;1175;-948;2691;-2797;-185;1749;-1054
660901;1;8;0;1175;-1000;2532;-2781;-191;1760;-1214
660911;1;8;0;1175;-1077;2423;-2825;-171;1646;-1515
660921;1;8;0;1175;-1148;2387;-2787;-154;1434;-1865
660931;1;8;0;1175;-1210;2471;-2799;-64;1212;-2202
660941;1;8;0;1175;-1196;2586;-2788;-71;1106;-2344
660951;1;8;0;1175;-1160;2768;-2828;0;988;-2322
660961;1;8;0;1175;-1123;2924;-2760;112;980;-2147
660971;1;8;0;1175;-1026;2998;-2728;192;1014;-1918
660981;1;8;0;1175;-922;3012;-2697;231;1033;-1672
660991;1;8;0;1175;-884;2928;-2684;270;1019;-1503
661001;1;8;0;1175;-866;2847;-2683;295;942;-1437
661011;1;8;0;1175;-873;2755;-2776;332;861;-1435
661021;1;8;0;1175;-941;2674;-2893;378;743;-1528
661031;1;8;0;1175;-1062;2590;-2928;355;459;-1605
661041;1;8;0;1175;-1224;2584;-3017;268;142;-1683
661051;1;8;0;1175;-1325;2646;-3041;102;-181;-1621
661061;1;8;0;1175;-1318;2749;-2985;-82;-366;-1433
661071;1;8;0;1175;-1300;2844;-2914;-211;-394;-1171
661081;1;8;0;1175;-1236;2992;-2801;-278;-354;-875
661091;1;8;0;1176;-1112;3071;-2722;-332;-286;-606
661101;1;8;0;1176;-980;3044;-2639;-395;-223;-440
661111;1;8;0;1176;-837;2977;-2633;-465;-181;-361
661121;1;8;0;1176;-764;2877;-2646;-505;-171;-330
661131;1;8;0;1176;-796;2826;-2696;-500;-172;-319
661141;1;8;0;1176;-901;2830;-2748;-525;-259;-285
661151;1;8;0;1176;-1045;2781;-2773;-542;-353;-244
661161;1;8;0;1176;-1202;2747;-2721;-579;-448;-150
661171;1;8;0;1176;-1307;2761;-2616;-622;-555;-25
661181;1;8;0;1176;-1384;2779;-2504;-622;-647;65
661191;1;8;0;1176;-1348;2802;-2409;-588;-792;126
661201;1;8;0;1176;-1246;2823;-2344;-525;-967;168
661211;1;8;0;1176;-1145;2842;-2353;-500;-1099;181
661221;1;8;0;1176;-1001;2854;-2439;-513;-1162;162
661231;1;8;0;1176;-857;2848;-2546;-533;-1086;90
661241;1;8;0;1176;-800;2797;-2663;-513;-951;-21
661251;1;8;0;1176;-894;2801;-2732;-512;-867;-129
661261;1;8;0;1176;-1071;2832;-2732;-549;-921;-206
661271;1;8;0;1176;-1277;2890;-2666;-601;-1086;-240
661281;1;8;0;1176;-1438;2964;-2546;-675;-1316;-216
661291;1;8;0;1176;-1524;3002;-2417;-748;-1541;-139
661301;1;8;0;1176;-1544;3014;-2309;-776;-1723;-106
661311;1;8;0;1176;-1427;2986;-2270;-781;-1793;-124
661321;1;8;0;1176;-1249;2880;-2297;-760;-1696;-217
661331;1;8;0;1176;-1115;2751;-2311;-750;-1551;-389
661341;1;8;0;1176;-1059;2670;-2341;-767;-1464;-578
661351;1;8;0;1176;-1075;2643;-2318;-778;-1487;-822
661361;1;8;0;1176;-1168;2700;-2278;-831;-1632;-993
661371;1;8;0;1176;-1279;2833;-2207;-920;-1889;-1086
661381;1;8;0;1176;-1407;2950;-2144;-1042;-2161;-1017
661391;1;8;0;1176;-1470;2973;-2089;-1181;-2294;-824
661401;1;8;0;1176;-1570;2994;-2016;-1246;-2362;-558
661411;1;8;0;1176;-1606;3074;-1987;-1226;-2465;-376
661421;1;8;0;1176;-1560;3183;-1952;-1168;-2574;-246
661431;1;8;0;1176;-1416;3268;-2022;-1126;-2538;-216
661441;1;8;0;1176;-1258;3164;-2065;-1062;-2386;-249
661451;1;8;0;1176;-1219;3099;-2066;-1020;-2269;-370
661461;1;8;0;1176;-1217;3038;-2077;-1054;-2211;-576
661471;1;8;0;1176;-1244;3029;-2100;-1131;-2210;-776
661481;1;8;0;1176;-1280;2991;-2116;-1260;-2270;-919
661491;1;8;0;1176;-1416;2992;-2139;-1381;-2405;-995
661501;1;8;0;1176;-1533;2997;-2115;-1466;-2528;-1007
661511;1;8;0;1176;-1540;3042;-1983;-1455;-2635;-1069
661521;1;8;0;1176;-1351;3129;-1822;-1384;-2578;-1163
661531;1;8;0;1176;-1159;3058;-1604;-1279;-2420;-1347
661541;1;8;0;1176;-1072;3011;-1515;-1246;-2360;-1549
661551;1;8;0;1176;-1025;3033;-1686;-1385;-2531;-1761
661561;1;8;0;1176;-1076;3166;-1894;-1643;-2875;-1914
661571;1;8;0;1176;-1301;3383;-2158;-1968;-3224;-1887
661581;1;8;0;1176;-1544;3571;-2279;-2227;-3461;-1646
661591;1;8;0;1177;-1761;3616;-2198;-2306;-3506;-1299
661601;1;8;0;1177;-1920;3656;-2030;-2185;-3483;-1052
661611;1;8;0;1177;-1861;3586;-1789;-1955;-3439;-934
661621;1;8;0;1177;-1630;3465;-1602;-1751;-3259;-1051
661631;1;8;0;1177;-1350;3188;-1452;-1692;-2898;-1290
661641;1;8;0;1177;-1127;2761;-1422;-1864;-2699;-1714
661651;1;8;0;1177;-1121;2449;-1500;-1978;-2151;-2091
661661;1;8;0;1177;-1279;2425;-1671;-2275;-2240;-2468
661671;1;8;0;1177;-1593;2609;-1755;-2608;-2498;-2504
661681;1;8;0;1177;-1914;2934;-1753;-2805;-2958;-2311
661691;1;8;0;1177;-2085;3203;-1536;-2809;-3272;-2044
661701;1;8;0;1177;-1990;3353;-1271;-2583;-3396;-1823
661711;1;8;0;1177;-1703;3342;-1019;-2343;-3246;-1827
661721;1;8;0;1177;-1395;3340;-936;-2233;-3066;-2162
661731;1;8;0;1177;-1121;2974;-896;-2335;-2830;-2717
661741;1;8;0;1177;-1135;2727;-1037;-2456;-2707;-3257
661751;1;8;0;1177;-1434;2744;-1317;-2710;-2727;-3474
661761;1;8;0;1177;-1914;2886;-1490;-2975;-2754;-3298
661771;1;8;0;1177;-2337;3223;-1522;-3127;-2852;-2877
661781;1;8;0;1177;-2676;3576;-1484;-3080;-2856;-2355
661791;1;8;0;1177;-2726;3769;-1376;-2914;-2744;-1947
661801;1;8;0;1177;-2486;3746;-1248;-2746;-2306;-1810
661811;1;8;0;1177;-2182;3429;-1120;-2601;-1845;-1941
661821;1;8;0;1177;-1963;3042;-1020;-2465;-1533;-2267
661831;1;8;0;1177;-1861;2740;-1031;-2402;-1378;-2690
661841;1;8;0;1177;-1986;2599;-1128;-2395;-1375;-3018
661851;1;8;0;1177;-2232;2675;-1191;-2403;-1500;-3134
661861;1;8;0;1177;-2526;2856;-1129;-2482;-2044;-3194
661871;1;8;0;1177;-2580;3171;-953;-2291;-1894;-3081
661881;1;8;0;1177;-2490;3316;-853;-2192;-1845;-2892
661891;1;8;0;1177;-2385;3456;-818;-2194;-1785;-2694
661901;1;8;0;1177;-2387;3465;-853;-2859;-2354;-2508
661911;1;8;0;1177;-2428;3359;-877;-2597;-1975;-2376
661921;1;8;0;1177;-2486;3381;-906;-2823;-2313;-2138
661931;1;8;0;1177;-2559;3339;-897;-2565;-1892;-1965
661941;1;8;0;1177;-2555;3201;-864;-2426;-1675;-1778
661951;1;8;0;1177;-2541;3041;-824;-2248;-1362;-1677
661961;1;8;0;1177;-2543;2950;-789;-2109;-1050;-1676
661971;1;8;0;1177;-2521;2807;-750;-2069;-940;-1718
661981;1;8;0;1177;-2605;2732;-639;-2090;-1065;-1792
661991;1;8;0;1177;-2618;2774;-579;-2191;-1413;-1880
662001;1;8;0;1177;-2589;2906;-532;-2291;-1684;-1873
662011;1;8;0;1177;-2562;2907;-547;-2484;-1925;-1754
662021;1;8;0;1177;-2391;2844;-535;-2379;-1951;-1689
662031;1;8;0;1177;-2336;2758;-546;-2243;-1885;-1693
662041;1;8;0;1177;-2285;2678;-594;-1989;-1581;-1842
662051;1;8;0;1177;-2359;2580;-555;-1800;-1323;-1957
662061;1;8;0;1177;-2454;2585;-463;-1700;-1103;-2062
662071;1;8;0;1177;-2738;2743;-338;-1709;-1288;-2016
662081;1;8;0;1177;-2947;2924;-270;-1734;-1446;-1830
662091;1;8;0;1178;-3108;3085;-259;-1675;-1530;-1532
662101;1;8;0;1178;-3140;3148;-270;-1703;-1621;-1198
662111;1;8;0;1178;-3084;3214;-395;-1626;-1420;-988
662121;1;8;0;1178;-2942;3068;-422;-1523;-1145;-889
662131;1;8;0;1178;-2810;2883;-432;-1368;-816;-955
662141;1;8;0;1178;-2787;2659;-341;-1270;-651;-1094
662151;1;8;0;1178;-2815;2529;-275;-1248;-717;-1171
662161;1;8;0;1178;-2913;2527;-300;-1301;-862;-1274
662171;1;8;0;1178;-2973;2578;-316;-1361;-967;-1254
662181;1;8;0;1178;-3080;2690;-351;-1376;-986;-1141
662191;1;8;0;1178;-3121;2739;-334;-1393;-993;-1183
662201;1;8;0;1178;-3022;2763;-341;-1451;-951;-1183
662211;1;8;0;1178;-2846;2699;-242;-1216;-641;-1341
662221;1;8;0;1178;-2692;2614;-118;-1026;-444;-1488
662231;1;8;0;1178;-2653;2675;23;-870;-401;-1650
662241;1;8;0;1178;-2777;2685;130;-724;-403;-1656
662251;1;8;0;1178;-3098;2904;173;-738;-763;-1475
662261;1;8;0;1178;-3266;3089;114;-1079;-1715;-1180
662271;1;8;0;1178;-3384;3182;33;-1020;-1603;-726
662281;1;8;0;1178;-3231;3038;-74;-1118;-1662;-404
662291;1;8;0;1178;-3029;2861;-189;-802;-933;-323
662301;1;8;0;1178;-2802;2558;-235;-610;-339;-497
662311;1;8;0;1178;-2672;2236;-289;-541;63;-845
662321;1;8;0;1178;-2689;2126;-330;-537;205;-1294
662331;1;8;0;1178;-2805;2151;-359;-552;148;-1686
662341;1;8;0;1178;-2984;2255;-228;-592;-28;-1788
662351;1;8;0;1178;-3114;2535;-150;-609;-212;-1700
662361;1;8;0;1178;-3129;2659;-72;-617;-277;-1345
662371;1;8;0;1178;-3043;2625;-10;-603;-143;-1010
662381;1;8;0;1178;-2905;2488;37;-552;108;-829
662391;1;8;0;1178;-2831;2447;66;-545;290;-949
662401;1;8;0;1178;-2794;2520;71;-542;340;-1230
662411;1;8;0;1178;-2915;2704;51;-464;363;-1513
662421;1;8;0;1178;-2896;2703;-55;-403;335;-1514
662431;1;8;0;1178;-2997;2722;-78;-412;328;-1428
662441;1;8;0;1178;-3127;2749;-77;-609;-5;-1281
662451;1;8;0;1178;-3138;2643;-16;-531;255;-1094
662461;1;8;0;1178;-3187;2630;-9;-526;266;-1060
662471;1;8;0;1178;-3120;2479;1;-430;233;-934
662481;1;8;0;1178;-3182;2509;-12;-434;235;-1011
662491;1;8;0;1178;-3159;2374;-56;-398;288;-1018
662501;1;8;0;1178;-3255;2438;-94;-412;385;-1241
662511;1;8;0;1178;-3275;2481;-140;-443;367;-1368
662521;1;8;0;1178;-3348;2503;-108;-454;316;-1457
662531;1;8;0;1178;-3323;2539;-75;-518;355;-1539
662541;1;8;0;1178;-3400;2510;-22;-577;314;-1495
662551;1;8;0;1178;-3394;2445;38;-623;404;-1504
662561;1;8;0;1178;-3395;2471;85;-623;415;-1493
662571;1;8;0;1178;-3303;2457;30;-634;393;-1571
662581;1;8;0;1178;-3399;2598;33;-632;216;-1601
662591;1;8;0;1179;-3278;2508;40;-655;235;-1630
662601;1;8;0;1179;-3360;2520;26;-636;91;-1474
662611;1;8;0;1179;-3417;2557;21;-703;-115;-1261
662621;1;8;0;1179;-3420;2628;19;-732;10;-1142
662631;1;8;0;1179;-3356;2474;-25;-754;92;-1036
662641;1;8;0;1179;-3335;2302;-42;-742;213;-1026
662651;1;8;0;1179;-3304;2095;-114;-709;342;-1195
662661;1;8;0;1179;-3315;1996;-102;-658;409;-1426
662671;1;8;0;1179;-3423;2157;-67;-671;384;-1755
662681;1;8;0;1179;-3586;2446;45;-748;183;-1858
662691;1;8;0;1179;-3538;2543;112;-833;43;-1704
662701;1;8;0;1179;-3569;2712;199;-930;-133;-1402
662711;1;8;0;1179;-3448;2615;168;-992;-238;-994
662721;1;8;0;1179;-3356;2503;61;-995;-117;-773
662731;1;8;0;1179;-3276;2171;-45;-927;-1;-711
662741;1;8;0;1179;-3245;1991;-201;-802;87;-828
662751;1;8;0;1179;-3215;1974;-289;-689;141;-1038
662761;1;8;0;1179;-3289;2041;-241;-620;187;-1297
662771;1;8;0;1179;-3329;2099;-137;-573;216;-1301
662781;1;8;0;1179;-3314;2348;-8;-591;227;-1258
662791;1;8;0;1179;-3281;2348;36;-638;289;-1114
662801;1;8;0;1179;-3234;2249;-5;-652;418;-937
662811;1;8;0;1179;-3270;2067;-85;-700;525;-900
662821;1;8;0;1179;-3388;1927;-142;-740;436;-932
662831;1;8;0;1179;-3489;1866;-182;-679;634;-1038
662841;1;8;0;1179;-3604;1904;-124;-633;747;-1184
662851;1;8;0;1179;-3680;2019;10;-597;771;-1286
662861;1;8;0;1179;-3625;2184;127;-584;730;-1269
662871;1;8;0;1179;-3547;2334;187;-637;546;-1090
662881;1;8;0;1179;-3450;2351;175;-770;273;-851
662891;1;8;0;1179;-3515;2251;170;-739;173;-765
662901;1;8;0;1179;-3559;2255;96;-682;139;-765
662911;1;8;0;1179;-3614;2188;-17;-574;157;-804
662921;1;8;0;1179;-3639;2235;-83;-460;258;-889
662931;1;8;0;1179;-3655;2153;-18;-376;405;-1001
662941;1;8;0;1179;-3637;2096;58;-272;511;-1019
662951;1;8;0;1179;-3600;2160;130;-256;535;-1070
662961;1;8;0;1179;-3549;2094;95;-294;453;-1040
662971;1;8;0;1179;-3515;1992;44;-337;314;-972
662981;1;8;0;1179;-3521;1900;-55;-339;295;-961
662991;1;8;0;1179;-3579;1837;-96;-358;199;-1024
663001;1;8;0;1179;-3690;1859;-56;-387;67;-1095
663011;1;8;0;1179;-3818;2038;31;-452;-27;-1135
663021;1;8;0;1179;-3813;2113;73;-472;10;-1026
663031;1;8;0;1179;-3756;2085;69;-468;105;-890
663041;1;8;0;1179;-3659;2005;53;-448;213;-847
663051;1;8;0;1179;-3536;1937;8;-477;264;-893
663061;1;8;0;1179;-3473;1886;-45;-472;217;-954
663071;1;8;0;1179;-3478;1928;-33;-498;106;-965
663081;1;8;0;1179;-3547;1997;8;-430;84;-929
663091;1;8;0;1180;-3598;2052;78;-380;69;-799
663101;1;8;0;1180;-3624;1988;132;-331;58;-595
663111;1;8;0;1180;-3601;1975;104;-346;118;-405
663121;1;8;0;1180;-3589;1925;54;-397;58;-242
663131;1;8;0;1180;-3557;1826;15;-402;-48;-174
663141;1;8;0;1180;-3538;1767;-49;-373;-122;-201
663151;1;8;0;1180;-3520;1789;-83;-322;-133;-279
663161;1;8;0;1180;-3509;1791;-97;-254;-85;-320
663171;1;8;0;1180;-3562;1839;-31;-219;-29;-295
663181;1;8;0;1180;-3558;1906;-4;-174;55;-186
663191;1;8;0;1180;-3722;2042;117;-252;5;-175
663201;1;8;0;1180;-3748;1982;110;-269;-111;-175
663211;1;8;0;1180;-3770;1886;68;-271;-184;-223
663221;1;8;0;1180;-3756;1843;-33;-262;-186;-305
663231;1;8;0;1180;-3725;1792;-116;-273;-142;-399
663241;1;8;0;1180;-3716;1763;-94;-293;-77;-483
663251;1;8;0;1180;-3684;1796;-45;-350;-31;-516
663261;1;8;0;1180;-3688;1852;10;-426;-18;-488
663271;1;8;0;1180;-3719;1951;63;-479;-77;-373
663281;1;8;0;1180;-3711;2028;84;-484;-119;-198
663291;1;8;0;1180;-3682;2052;61;-435;-148;-2
663301;1;8;0;1180;-3630;1980;3;-344;-152;105
663311;1;8;0;1180;-3580;1843;-38;-240;-106;157
663321;1;8;0;1180;-3536;1775;-39;-153;-5;161
663331;1;8;0;1180;-3491;1773;-93;-129;101;146
663341;1;8;0;1180;-3467;1823;-133;-162;163;194
663351;1;8;0;1180;-3537;1862;-104;-208;120;292
663361;1;8;0;1180;-3641;1875;-12;-215;-35;415
663371;1;8;0;1180;-3727;1936;24;-190;-202;547
663381;1;8;0;1180;-3797;1984;-18;-159;-259;672
663391;1;8;0;1180;-3832;2019;-80;-95;-229;727
663401;1;8;0;1180;-3782;2017;-132;17;-84;718
663411;1;8;0;1180;-3684;2006;-96;148;128;679
663421;1;8;0;1180;-3589;1980;-66;259;338;633
663431;1;8;0;1180;-3547;1926;-121;257;463;615
663441;1;8;0;1180;-3635;1872;-114;185;422;644
663451;1;8;0;1180;-3733;1898;-120;109;271;685
663461;1;8;0;1180;-3855;2047;-57;-20;78;822
663471;1;8;0;1180;-3913;2176;-4;-117;-58;1033
663481;1;8;0;1180;-3932;2273;12;-75;0;1245
663491;1;8;0;1180;-3930;2330;46;33;166;1376
663501;1;8;0;1180;-3852;2300;-13;181;394;1411
663511;1;8;0;1180;-3729;2199;-99;376;603;1379
663521;1;8;0;1180;-3565;2085;-203;525;768;1291
663531;1;8;0;1180;-3473;1962;-274;590;868;1163
663541;1;8;0;1180;-3489;1858;-324;518;860;1041
663551;1;8;0;1180;-3597;1863;-297;337;805;983
663561;1;8;0;1180;-3785;1968;-158;184;654;943
663571;1;8;0;1180;-3923;2215;-47;15;402;986
663581;1;8;0;1180;-3950;2420;-6;-93;226;1127
663591;1;8;0;1181;-3911;2535;20;-115;117;1365
663601;1;8;0;1181;-3744;2533;-21;-85;97;1605
663611;1;8;0;1181;-3558;2465;-98;56;265;1742
663621;1;8;0;1181;-3451;2332;-207;244;492;1756
663631;1;8;0;1181;-3374;2234;-283;426;708;1675
663641;1;8;0;1181;-3396;2171;-330;553;855;1537
663651;1;8;0;1181;-3521;2180;-302;630;894;1436
663661;1;8;0;1181;-3675;2268;-230;656;837;1366
663671;1;8;0;1181;-3775;2424;-176;603;707;1370
663681;1;8;0;1181;-3757;2574;-178;502;578;1475
663691;1;8;0;1181;-3660;2630;-192;409;525;1649
663701;1;8;0;1181;-3541;2571;-206;385;583;1803
663711;1;8;0;1181;-3514;2463;-237;372;673;1838
663721;1;8;0;1181;-3476;2408;-303;445;755;1701
663731;1;8;0;1181;-3519;2349;-331;520;709;1516
663741;1;8;0;1181;-3593;2365;-354;521;530;1373
663751;1;8;0;1181;-3647;2423;-370;524;359;1325
663761;1;8;0;1181;-3662;2494;-330;475;273;1379
663771;1;8;0;1181;-3570;2544;-306;443;306;1498
663781;1;8;0;1181;-3461;2616;-299;408;482;1579
663791;1;8;0;1181;-3297;2623;-331;462;701;1644
663801;1;8;0;1181;-3217;2649;-394;563;940;1611
663811;1;8;0;1181;-3183;2554;-447;647;1081;1559
663821;1;8;0;1181;-3232;2533;-486;736;1075;1489
663831;1;8;0;1181;-3359;2598;-516;782;907;1423
663841;1;8;0;1181;-3370;2613;-518;804;715;1521
663851;1;8;0;1181;-3381;2685;-471;853;597;1793
663861;1;8;0;1181;-3303;2762;-473;869;610;2140
663871;1;8;0;1181;-3159;2719;-434;906;761;2474
663881;1;8;0;1181;-2989;2650;-399;957;1043;2598
663891;1;8;0;1181;-2896;2555;-448;1031;1223;2527
663901;1;8;0;1181;-2901;2462;-537;1137;1400;2260
663911;1;8;0;1181;-2984;2519;-638;1254;1441;1933
663921;1;8;0;1181;-3117;2619;-719;1372;1357;1739
663931;1;8;0;1181;-3253;2736;-807;1470;1234;1684
663941;1;8;0;1181;-3330;2808;-812;1550;1066;1844
663951;1;8;0;1181;-3282;2899;-777;1549;968;2109
663961;1;8;0;1181;-3166;2871;-690;1524;951;2460
663971;1;8;0;1181;-2962;2798;-647;1471;950;2802
663981;1;8;0;1181;-2826;2649;-656;1452;858;3099
663991;1;8;0;1181;-2680;2525;-729;1477;837;3189
664001;1;8;0;1181;-2638;2369;-802;1557;797;3104
664011;1;8;0;1181;-2671;2336;-861;1662;751;2888
664021;1;8;0;1181;-2733;2413;-882;1707;616;2650
664031;1;8;0;1181;-2796;2554;-859;1665;501;2487
664041;1;8;0;1181;-2785;2717;-885;1583;364;2539
664051;1;8;0;1181;-2736;2818;-901;1518;329;2708
664061;1;8;0;1181;-2675;2858;-924;1487;371;2915
664071;1;8;0;1181;-2637;2879;-922;1526;493;3046
664081;1;8;0;1181;-2414;3001;-1145;1949;1714;3107
664091;1;8;0;1182;-2625;2918;-1009;1642;701;2894
664101;1;8;0;1182;-2621;2909;-1032;1709;666;2724
664111;1;8;0;1182;-2577;2896;-1053;1804;774;2618
664121;1;8;0;1182;-2599;2821;-1046;1874;906;2508
664131;1;8;0;1182;-2608;2801;-1033;1922;993;2440
664141;1;8;0;1182;-2669;2935;-972;1885;912;2407
664151;1;8;0;1182;-2656;3088;-980;1770;681;2468
664161;1;8;0;1182;-2584;3240;-1025;1609;492;2641
664171;1;8;0;1182;-2474;3297;-1113;1477;445;2933
664181;1;8;0;1182;-2389;3190;-1240;1468;596;3233
664191;1;8;0;1182;-2307;2967;-1355;1573;1023;3293
664201;1;8;0;1182;-2237;2737;-1410;1774;1434;3082
664211;1;8;0;1182;-2175;2500;-1436;2006;1753;2640
664221;1;8;0;1182;-2210;2366;-1417;2207;1819;2168
664231;1;8;0;1182;-2293;2401;-1326;2285;1624;1771
664241;1;8;0;1182;-2338;2569;-1290;2145;1502;1548
664251;1;8;0;1182;-2387;2850;-1184;1910;1050;1542
664261;1;8;0;1182;-2362;3048;-1116;1627;630;1779
664271;1;8;0;1182;-2344;3209;-1083;1355;301;2160
664281;1;8;0;1182;-2255;3383;-1064;1147;63;2585
664291;1;8;0;1182;-2089;3370;-1104;1107;101;3007
664301;1;8;0;1182;-1959;3343;-1209;1315;491;3313
664311;1;8;0;1182;-1794;3112;-1293;1451;735;3431
664321;1;8;0;1182;-1765;2965;-1382;1698;970;3349
664331;1;8;0;1182;-1772;2884;-1464;1902;1130;3165
664341;1;8;0;1182;-1743;2806;-1481;2004;1216;2919
664351;1;8;0;1182;-1741;2729;-1434;2046;1187;2700
664361;1;8;0;1182;-1672;2733;-1474;2030;1163;2513
664371;1;8;0;1182;-1702;2824;-1473;1921;1052;2427
664381;1;8;0;1182;-1781;2866;-1447;1723;934;2407
664391;1;8;0;1182;-1754;2889;-1449;1522;758;2506
664401;1;8;0;1182;-1702;2901;-1496;1343;682;2598
664411;1;8;0;1182;-1624;2921;-1485;1247;607;2590
664421;1;8;0;1182;-1499;2915;-1531;1215;623;2537
664431;1;8;0;1182;-1495;2870;-1487;1271;801;2376
664441;1;8;0;1182;-1520;2923;-1548;1392;949;2235
664451;1;8;0;1182;-1539;2961;-1576;1489;1035;2114
664461;1;8;0;1182;-1545;2910;-1620;1556;1168;2024
664471;1;8;0;1182;-1524;2960;-1674;1592;1326;1989
664481;1;8;0;1182;-1595;2888;-1702;1669;1702;2054
664491;1;8;0;1182;-1569;2957;-1755;1638;1541;2026
664501;1;8;0;1182;-1593;2987;-1662;1629;1512;2055
664511;1;8;0;1182;-1543;3046;-1604;1603;1451;2083
664521;1;8;0;1182;-1485;3074;-1518;1588;1436;2108
664531;1;8;0;1182;-1372;3141;-1480;1622;1410;2197
664541;1;8;0;1182;-1352;3173;-1450;1595;1450;2288
664551;1;8;0;1182;-1148;3101;-1511;1562;1459;2523
664561;1;8;0;1182;-1136;3015;-1589;1597;1643;2553
664571;1;8;0;1182;-1168;2972;-1705;1530;1522;2506
664581;1;8;0;1182;-1159;2938;-1806;1469;1345;2282
664591;1;8;0;1183;-1177;3000;-1861;1385;1075;1937
664601;1;8;0;1183;-1242;3154;-1902;1357;851;1630
664611;1;8;0;1183;-1292;3245;-1935;1328;752;1484
664621;1;8;0;1183;-1280;3346;-1986;1296;801;1502
664631;1;8;0;1183;-1242;3290;-2054;1276;949;1648
664641;1;8;0;1183;-1245;3226;-2059;1255;1107;1780
664651;1;8;0;1183;-1182;3160;-2110;1193;1234;1798
664661;1;8;0;1183;-1185;3133;-2126;1142;1223;1723
664671;1;8;0;1183;-1139;3123;-2150;1036;1174;1617
664681;1;8;0;1183;-1088;3158;-2109;980;1120;1521
664691;1;8;0;1183;-1058;3219;-2036;941;1095;1416
664701;1;8;0;1183;-1058;3277;-2010;908;1072;1339
664711;1;8;0;1183;-1008;3282;-1937;882;1053;1343
664721;1;8;0;1183;-1035;3323;-1882;822;991;1386
664731;1;8;0;1183;-977;3264;-1919;734;930;1403
664741;1;8;0;1183;-910;3161;-1951;704;820;1452
664751;1;8;0;1183;-879;3113;-1999;676;771;1406
664761;1;8;0;1183;-846;3102;-2092;640;731;1314
664771;1;8;0;1183;-801;3047;-2171;644;696;1249
664781;1;8;0;1183;-781;3079;-2188;672;672;1132
664791;1;8;0;1183;-820;3126;-2252;646;639;1033
664801;1;8;0;1183;-917;3223;-2261;578;515;1014
664811;1;8;0;1183;-947;3226;-2249;479;423;1039
664821;1;8;0;1183;-949;3223;-2216;397;337;1070
664831;1;8;0;1183;-924;3216;-2177;370;373;1051
664841;1;8;0;1183;-868;3208;-2178;389;491;988
664851;1;8;0;1183;-868;3227;-2183;450;635;928
664861;1;8;0;1183;-838;3229;-2266;478;779;915
664871;1;8;0;1183;-841;3168;-2254;499;890;918
664881;1;8;0;1183;-845;3172;-2268;492;882;910
664891;1;8;0;1183;-864;3194;-2247;418;840;891
664901;1;8;0;1183;-855;3188;-2208;360;756;828
664911;1;8;0;1183;-857;3142;-2171;286;655;750
664921;1;8;0;1183;-889;3176;-2170;261;568;663
664931;1;8;0;1183;-907;3180;-2149;261;528;605
664941;1;8;0;1183;-897;3205;-2159;288;560;560
664951;1;8;0;1183;-849;3249;-2128;364;666;486
664961;1;8;0;1183;-784;3219;-2128;454;769;391
664971;1;8;0;1183;-742;3254;-2118;526;825;304
664981;1;8;0;1183;-668;3284;-2167;521;771;271
664991;1;8;0;1183;-697;3287;-2215;458;608;263
665001;1;8;0;1183;-705;3248;-2267;354;384;316
665011;1;8;0;1183;-737;3244;-2309;237;157;364
665021;1;8;0;1183;-719;3260;-2357;130;61;340
665031;1;8;0;1183;-714;3192;-2362;143;61;251
665041;1;8;0;1183;-728;3189;-2313;217;114;143
665051;1;8;0;1183;-774;3230;-2274;293;194;71
665061;1;8;0;1183;-773;3267;-2282;314;287;76
665071;1;8;0;1183;-766;3252;-2295;251;312;127
665081;1;8;0;1183;-786;3209;-2329;138;251;166
665091;1;8;0;1184;-753;3225;-2340;29;137;153
665101;1;8;0;1184;-662;3241;-2340;3;87;122
665111;1;8;0;1184;-613;3249;-2325;39;96;67
665121;1;8;0;1184;-578;3250;-2321;100;148;45
665131;1;8;0;1184;-553;3253;-2381;116;178;17
665141;1;8;0;1184;-510;3238;-2439;81;159;-46
665151;1;8;0;1184;-490;3200;-2509;22;80;-111
665161;1;8;0;1184;-518;3176;-2550;-28;-58;-131
665171;1;8;0;1184;-570;3174;-2550;-90;-174;-130
665181;1;8;0;1184;-644;3188;-2546;-171;-264;-95
665191;1;8;0;1184;-727;3194;-2464;-261;-304;-69
665201;1;8;0;1184;-747;3205;-2429;-363;-253;-54
665211;1;8;0;1184;-723;3168;-2393;-416;-162;-93
665221;1;8;0;1184;-691;3148;-2386;-462;-64;-178
665231;1;8;0;1184;-651;3139;-2334;-493;-7;-280
665241;1;8;0;1184;-640;3122;-2283;-558;-56;-384
665251;1;8;0;1184;-673;3122;-2212;-600;-237;-517
665261;1;8;0;1184;-737;3214;-2160;-651;-478;-623
665271;1;8;0;1184;-803;3313;-2112;-703;-717;-663
665281;1;8;0;1184;-811;3383;-2140;-711;-843;-658
665291;1;8;0;1184;-824;3387;-2210;-632;-809;-585
665301;1;8;0;1184;-821;3397;-2256;-498;-663;-423
665311;1;8;0;1184;-778;3359;-2270;-365;-419;-298
665321;1;8;0;1184;-738;3304;-2261;-190;-253;-283
665331;1;8;0;1184;-712;3295;-2281;-74;-194;-299
665341;1;8;0;1184;-701;3256;-2320;-33;-255;-311
665351;1;8;0;1184;-672;3232;-2377;-83;-348;-285
665361;1;8;0;1184;-674;3198;-2424;-161;-463;-268
665371;1;8;0;1184;-696;3161;-2442;-247;-545;-257
665381;1;8;0;1184;-731;3164;-2408;-302;-568;-270
665391;1;8;0;1184;-765;3150;-2395;-318;-522;-329
665401;1;8;0;1184;-792;3154;-2392;-311;-447;-412
665411;1;8;0;1184;-829;3166;-2373;-303;-362;-524
665421;1;8;0;1184;-862;3208;-2387;-291;-285;-621
665431;1;8;0;1184;-847;3226;-2393;-295;-207;-647
665441;1;8;0;1184;-855;3224;-2333;-341;-187;-643
665451;1;8;0;1184;-881;3227;-2237;-388;-247;-641
665461;1;8;0;1184;-894;3205;-2126;-446;-373;-679
665471;1;8;0;1184;-943;3162;-2025;-521;-528;-755
665481;1;8;0;1184;-949;3129;-1990;-575;-652;-886
665491;1;8;0;1184;-914;3118;-1988;-603;-746;-1034
665501;1;8;0;1184;-964;3185;-1999;-603;-795;-1034
665511;1;8;0;1184;-948;3215;-2058;-599;-842;-956
665521;1;8;0;1184;-891;3234;-2113;-628;-883;-881
665531;1;8;0;1184;-885;3243;-2127;-691;-901;-850
665541;1;8;0;1184;-801;3208;-2114;-774;-850;-868
665551;1;8;0;1184;-796;3116;-2101;-869;-839;-970
665561;1;8;0;1184;-859;2928;-2108;-953;-863;-1144
665571;1;8;0;1184;-1001;2861;-2090;-1065;-949;-1415
665581;1;8;0;1184;-1110;2923;-2030;-1212;-1114;-1725
665591;1;8;0;1185;-1129;3010;-2021;-1251;-1262;-1943
665601;1;8;0;1185;-1089;3122;-2069;-1211;-1325;-1979
665611;1;8;0;1185;-1078;3241;-2100;-1085;-1240;-1823
665621;1;8;0;1185;-1096;3317;-2018;-957;-1125;-1547
665631;1;8;0;1185;-1083;3361;-1853;-859;-1070;-1287
665641;1;8;0;1185;-955;3305;-1717;-851;-1028;-1124
665651;1;8;0;1185;-854;3120;-1798;-961;-950;-1090
665661;1;8;0;1185;-807;2913;-2019;-1177;-898;-1199
665671;1;8;0;1185;-900;2834;-2230;-1380;-944;-1441
665681;1;8;0;1185;-1075;2951;-2299;-1571;-1193;-1720
665691;1;8;0;1185;-1223;3124;-2277;-1681;-1467;-1886
665701;1;8;0;1185;-1319;3313;-2194;-1696;-1621;-1851
665711;1;8;0;1185;-1309;3462;-2032;-1659;-1554;-1630
665721;1;8;0;1185;-1248;3468;-1763;-1578;-1319;-1448
665731;1;8;0;1185;-1003;3377;-1663;-1559;-915;-1303
665741;1;8;0;1185;-722;2991;-1853;-1583;-412;-1284
665751;1;8;0;1185;-722;2741;-2143;-1669;-79;-1410
665761;1;8;0;1185;-887;2672;-2341;-1863;-134;-1648
665771;1;8;0;1185;-1117;2615;-2437;-2107;-487;-2063
665781;1;8;0;1185;-1469;2762;-2336;-2248;-1000;-2513
665791;1;8;0;1185;-1734;3013;-2041;-2262;-1423;-2824
665801;1;8;0;1185;-1772;3250;-1657;-2155;-1645;-2924
665811;1;8;0;1185;-1561;3424;-1386;-2029;-1506;-2851
665821;1;8;0;1185;-1201;3353;-1245;-1981;-1066;-2682
665831;1;8;0;1185;-911;2976;-1377;-1969;-519;-2553
665841;1;8;0;1185;-888;2750;-1651;-2064;-194;-2557
665851;1;8;0;1185;-1056;2703;-1965;-2356;-334;-2776
665861;1;8;0;1185;-1261;2730;-2067;-2580;-707;-3061
665871;1;8;0;1185;-1598;2854;-2058;-2784;-1336;-3451
665881;1;8;0;1185;-1841;3065;-1864;-2792;-1786;-3744
665891;1;8;0;1185;-1879;3358;-1546;-2701;-1873;-3862
665901;1;8;0;1185;-1744;3504;-1222;-2534;-1550;-3807
665911;1;8;0;1185;-1535;3451;-1060;-2452;-1047;-3605
665921;1;8;0;1185;-1437;3276;-1141;-2492;-597;-3358
665931;1;8;0;1185;-1487;3272;-1372;-2586;-494;-3129
665941;1;8;0;1185;-1656;3487;-1712;-2712;-768;-2930
665951;1;8;0;1185;-1789;3585;-1844;-2784;-1219;-2723
665961;1;8;0;1185;-1884;3700;-1780;-2629;-1530;-2582
665971;1;8;0;1185;-1970;3779;-1606;-2279;-1616;-2410
665981;1;8;0;1185;-1940;3636;-1478;-1874;-1473;-2328
665991;1;8;0;1185;-1794;3235;-1370;-1458;-1153;-2385
666001;1;8;0;1185;-1692;2789;-1351;-1252;-909;-2578
666011;1;8;0;1185;-1664;2391;-1390;-1199;-844;-2861
666021;1;8;0;1185;-1775;2364;-1396;-1352;-1189;-3034
666031;1;8;0;1185;-1905;2554;-1457;-1730;-1674;-3005
666041;1;8;0;1185;-2020;2750;-1582;-2247;-2087;-2880
666051;1;8;0;1185;-2181;3072;-1671;-2649;-2315;-2766
666061;1;8;0;1185;-2246;3302;-1656;-2828;-2243;-2693
666071;1;8;0;1185;-2222;3439;-1619;-2690;-1868;-2794
666081;1;8;0;1185;-2243;3310;-1581;-2291;-1368;-2954
666091;1;8;0;1186;-2277;3092;-1537;-1932;-899;-3075
666101;1;8;0;1186;-2481;2878;-1446;-1618;-708;-3270
666111;1;8;0;1186;-2611;2995;-1271;-1550;-876;-3391
666121;1;8;0;1186;-2605;3278;-1102;-1671;-1228;-3271
666131;1;8;0;1186;-2513;3589;-1092;-1897;-1549;-2830
666141;1;8;0;1186;-2314;3720;-1163;-2086;-1588;-2303
666151;1;8;0;1186;-2145;3547;-1196;-2134;-1353;-1911
666161;1;8;0;1186;-2099;3292;-1181;-1933;-1080;-1805
666171;1;8;0;1186;-2175;3002;-1248;-1627;-889;-1964
666181;1;8;0;1186;-2316;2719;-1399;-1385;-814;-2222
666191;1;8;0;1186;-2533;2512;-1428;-1276;-868;-2471
666201;1;8;0;1186;-2750;2448;-1224;-1359;-1162;-2665
666211;1;8;0;1186;-2829;2669;-990;-1581;-1548;-2765
666221;1;8;0;1186;-2821;2938;-782;-1834;-1937;-2679
666231;1;8;0;1186;-2704;3246;-775;-2047;-2132;-2406
666241;1;8;0;1186;-2525;3499;-897;-2170;-1965;-1994
666251;1;8;0;1186;-2379;3502;-978;-2136;-1609;-1662
666261;1;8;0;1186;-2326;3311;-986;-1850;-1199;-1454
666271;1;8;0;1186;-2364;3106;-1036;-1541;-965;-1485
666281;1;8;0;1186;-2464;2835;-1170;-1285;-837;-1625
666291;1;8;0;1186;-2605;2564;-1197;-1173;-816;-1804
666301;1;8;0;1186;-2814;2382;-1092;-1232;-970;-2010
666311;1;8;0;1186;-2898;2419;-941;-1397;-1241;-2197
666321;1;8;0;1186;-2823;2542;-772;-1553;-1517;-2268
666331;1;8;0;1186;-2731;2740;-665;-1645;-1700;-2257
666341;1;8;0;1186;-2520;2929;-688;-1661;-1628;-2118
666351;1;8;0;1186;-2317;2919;-713;-1527;-1257;-1998
666361;1;8;0;1186;-2263;2838;-718;-1271;-840;-1976
666371;1;8;0;1186;-2294;2667;-771;-984;-477;-2131
666381;1;8;0;1186;-2401;2504;-876;-816;-303;-2367
666391;1;8;0;1186;-2627;2364;-950;-749;-260;-2624
666401;1;8;0;1186;-2913;2330;-943;-757;-352;-2857
666411;1;8;0;1186;-3146;2447;-875;-836;-516;-3030
666421;1;8;0;1186;-3241;2618;-716;-942;-636;-3023
666431;1;8;0;1186;-3218;2855;-571;-1028;-714;-2874
666441;1;8;0;1186;-3065;3003;-550;-1076;-615;-2595
666451;1;8;0;1186;-2889;3014;-526;-1050;-361;-2283
666461;1;8;0;1186;-2705;2887;-501;-957;-104;-2051
666471;1;8;0;1186;-2628;2722;-507;-837;1;-1926
666481;1;8;0;1186;-2633;2540;-551;-778;-50;-1895
666491;1;8;0;1186;-2757;2414;-592;-807;-140;-1880
666501;1;8;0;1186;-2941;2325;-573;-914;-277;-1891
666511;1;8;0;1186;-3106;2337;-540;-1027;-467;-1868
666521;1;8;0;1186;-3149;2424;-442;-1130;-614;-1815
666531;1;8;0;1186;-3123;2489;-384;-1143;-714;-1741
666541;1;8;0;1186;-3067;2573;-318;-1116;-731;-1664
666551;1;8;0;1186;-2974;2636;-362;-1051;-705;-1542
666561;1;8;0;1186;-2886;2582;-453;-976;-605;-1407
666571;1;8;0;1186;-2863;2485;-543;-895;-468;-1400
666581;1;8;0;1186;-2915;2387;-655;-838;-290;-1429
666591;1;8;0;1187;-2962;2198;-728;-809;-101;-1592
666601;1;8;0;1187;-3019;2116;-793;-782;80;-1867
666611;1;8;0;1187;-3084;2009;-823;-757;270;-2180
666621;1;8;0;1187;-3218;1973;-747;-709;459;-2473
666631;1;8;0;1187;-3290;2089;-553;-648;491;-2573
666641;1;8;0;1187;-3367;2313;-407;-623;296;-2499
666651;1;8;0;1187;-3361;2517;-264;-709;93;-2290
666661;1;8;0;1187;-3304;2653;-192;-821;-129;-1923
666671;1;8;0;1187;-3249;2749;-190;-976;-282;-1559
666681;1;8;0;1187;-3122;2590;-342;-1021;-257;-1400
666691;1;8;0;1187;-3092;2416;-484;-904;-90;-1350
666701;1;8;0;1187;-3125;2222;-645;-789;121;-1507
666711;1;8;0;1187;-3206;1982;-717;-644;322;-1674
666721;1;8;0;1187;-3423;1991;-699;-589;348;-1833
666731;1;8;0;1187;-3409;1860;-608;-631;300;-1884
666741;1;8;0;1187;-3591;1976;-432;-659;135;-1770
666751;1;8;0;1187;-3521;2134;-347;-735;-54;-1703
666761;1;8;0;1187;-3474;2351;-343;-754;-275;-1533
666771;1;8;0;1187;-3301;2414;-420;-692;-344;-1536
666781;1;8;0;1187;-3320;2439;-528;-549;-318;-1594
666791;1;8;0;1187;-3407;2433;-568;-360;-134;-1568
666801;1;8;0;1187;-3508;2331;-546;-248;97;-1569
666811;1;8;0;1187;-3604;2271;-501;-163;203;-1477
666821;1;8;0;1187;-3740;2226;-493;-212;213;-1399
666831;1;8;0;1187;-3683;2163;-512;-287;119;-1317
666841;1;8;0;1187;-3604;2095;-593;-333;107;-1359
666851;1;8;0;1187;-3476;1994;-645;-315;155;-1511
666861;1;8;0;1187;-3466;1999;-697;-210;246;-1710
666871;1;8;0;1187;-3529;2006;-630;-194;285;-1879
666881;1;8;0;1187;-3612;1991;-529;-260;273;-2000
666891;1;8;0;1187;-3769;2142;-488;-393;188;-2052
666901;1;8;0;1187;-3942;2169;-401;-440;259;-1940
666911;1;8;0;1187;-4027;2190;-384;-507;102;-1696
666921;1;8;0;1187;-4045;2394;-351;-617;-29;-1518
666931;1;8;0;1187;-3937;2325;-355;-567;-188;-1354
666941;1;8;0;1187;-3787;2420;-408;-332;-187;-1397
666951;1;8;0;1187;-3517;2307;-523;-60;100;-1409
666961;1;8;0;1187;-3436;2018;-626;233;562;-1396
666971;1;8;0;1187;-3461;1942;-605;323;870;-1414
666981;1;8;0;1187;-3501;1923;-546;164;937;-1413
666991;1;8;0;1187;-3608;1892;-428;-98;748;-1328
667001;1;8;0;1187;-3713;1915;-346;-384;472;-1176
667011;1;8;0;1187;-3819;2072;-311;-563;277;-1006
667021;1;8;0;1187;-3818;2137;-335;-595;232;-818
667031;1;8;0;1187;-3746;2108;-377;-567;272;-607
667041;1;8;0;1187;-3683;2048;-524;-542;316;-511
667051;1;8;0;1187;-3641;1895;-621;-566;316;-444
667061;1;8;0;1187;-3664;1807;-681;-588;152;-455
667071;1;8;0;1187;-3773;1825;-643;-541;245;-533
667081;1;8;0;1187;-3799;1859;-585;-503;367;-627
667091;1;8;0;1188;-3803;1930;-458;-504;442;-662
667101;1;8;0;1188;-3838;1929;-364;-505;399;-626
667111;1;8;0;1188;-3812;1952;-289;-492;267;-577
667121;1;8;0;1188;-3729;1903;-292;-473;56;-509
667131;1;8;0;1188;-3657;1835;-449;-449;-74;-448
667141;1;8;0;1188;-3622;1761;-610;-395;-129;-431
667151;1;8;0;1188;-3622;1704;-636;-322;-193;-501
667161;1;8;0;1188;-3644;1760;-580;-209;-42;-622
667171;1;8;0;1188;-3648;1778;-475;-160;26;-698
667181;1;8;0;1188;-3685;1817;-401;-182;12;-737
667191;1;8;0;1188;-3712;1828;-417;-220;-37;-705
667201;1;8;0;1188;-3712;1920;-436;-300;-183;-562
667211;1;8;0;1188;-3635;1843;-554;-317;-266;-332
667221;1;8;0;1188;-3677;1834;-672;-237;-315;-114
667231;1;8;0;1188;-3681;1768;-679;-150;-290;24
667241;1;8;0;1188;-3749;1758;-627;-111;-207;72
667251;1;8;0;1188;-3821;1788;-585;-161;-101;77
667261;1;8;0;1188;-3923;1837;-498;-207;-28;118
667271;1;8;0;1188;-3950;1899;-356;-221;-4;233
667281;1;8;0;1188;-3945;1952;-286;-225;-52;380
667291;1;8;0;1188;-3894;2003;-307;-215;-195;556
667301;1;8;0;1188;-3883;2001;-419;-219;-333;698
667311;1;8;0;1188;-3874;1989;-529;-198;-413;814
667321;1;8;0;1188;-3824;1992;-619;-143;-362;914
667331;1;8;0;1188;-3837;1986;-654;-45;-191;918
667341;1;8;0;1188;-3879;2007;-645;48;-25;880
667351;1;8;0;1188;-3958;2041;-617;71;112;873
667361;1;8;0;1188;-4054;2023;-596;15;172;921
667371;1;8;0;1188;-4073;2048;-536;-46;141;1016
667381;1;8;0;1188;-4043;2110;-461;-68;61;1161
667391;1;8;0;1188;-3913;2169;-398;-28;-8;1310
667401;1;8;0;1188;-3791;2180;-395;67;-12;1441
667411;1;8;0;1188;-3686;2161;-460;208;55;1508
667421;1;8;0;1188;-3557;2112;-556;308;229;1534
667431;1;8;0;1188;-3484;2007;-575;344;389;1521
667441;1;8;0;1188;-3494;1907;-613;344;437;1496
667451;1;8;0;1188;-3546;1844;-580;286;362;1477
667461;1;8;0;1188;-3630;1887;-551;212;162;1445
667471;1;8;0;1188;-3731;1969;-492;150;-84;1437
667481;1;8;0;1188;-3770;2107;-489;111;-275;1426
667491;1;8;0;1188;-3715;2211;-498;118;-362;1446
667501;1;8;0;1188;-3673;2238;-535;233;-266;1460
667511;1;8;0;1188;-3636;2230;-558;388;-77;1443
667521;1;8;0;1188;-3654;2215;-548;531;104;1369
667531;1;8;0;1188;-3612;2242;-602;654;288;1273
667541;1;8;0;1188;-3548;2259;-602;710;516;1230
667551;1;8;0;1188;-3526;2245;-540;693;696;1274
667561;1;8;0;1188;-3504;2276;-486;633;770;1343
667571;1;8;0;1188;-3430;2277;-472;519;760;1392
667581;1;8;0;1188;-3408;2230;-498;457;651;1433
667591;1;8;0;1189;-3439;2135;-534;450;483;1460
667601;1;8;0;1189;-3422;2114;-610;544;313;1465
667611;1;8;0;1189;-3384;2131;-648;669;228;1413
667621;1;8;0;1189;-3377;2231;-593;796;220;1342
667631;1;8;0;1189;-3373;2283;-534;878;246;1397
667641;1;8;0;1189;-3486;2344;-502;873;227;1521
667651;1;8;0;1189;-3556;2367;-524;775;130;1635
667661;1;8;0;1189;-3571;2361;-571;644;-10;1705
667671;1;8;0;1189;-3554;2403;-666;579;-159;1704
667681;1;8;0;1189;-3513;2464;-743;544;-130;1661
667691;1;8;0;1189;-3479;2533;-803;598;33;1634
667701;1;8;0;1189;-3465;2529;-792;677;186;1694
667711;1;8;0;1189;-3472;2567;-773;738;255;1732
667721;1;8;0;1189;-3477;2563;-716;746;235;1807
667731;1;8;0;1189;-3435;2537;-713;722;71;1915
667741;1;8;0;1189;-3441;2600;-699;669;-156;2053
667751;1;8;0;1189;-3423;2614;-797;609;-299;2219
667761;1;8;0;1189;-3387;2625;-925;620;-352;2357
667771;1;8;0;1189;-3365;2627;-994;707;-238;2347
667781;1;8;0;1189;-3216;2642;-1045;895;26;2245
667791;1;8;0;1189;-3198;2665;-1020;1135;306;2143
667801;1;8;0;1189;-3207;2609;-944;1276;535;2086
667811;1;8;0;1189;-3276;2595;-903;1280;486;2092
667821;1;8;0;1189;-3348;2632;-856;1184;222;2170
667831;1;8;0;1189;-3357;2741;-856;1032;-96;2318
667841;1;8;0;1189;-3256;2834;-888;921;-253;2501
667851;1;8;0;1189;-3089;2843;-925;916;-143;2722
667861;1;8;0;1189;-2922;2797;-940;1012;202;2883
667871;1;8;0;1189;-2807;2666;-984;1117;564;2955
667881;1;8;0;1189;-2722;2483;-1110;1239;778;2901
667891;1;8;0;1189;-2647;2412;-1175;1358;773;2776
667901;1;8;0;1189;-2635;2420;-1168;1433;665;2594
667911;1;8;0;1189;-2681;2397;-1093;1535;448;2477
667921;1;8;0;1189;-2808;2545;-1024;1600;154;2480
667931;1;8;0;1189;-2869;2703;-1011;1605;-72;2621
667941;1;8;0;1189;-2924;2884;-1061;1531;-163;2844
667951;1;8;0;1189;-2876;2947;-1144;1527;-118;3079
667961;1;8;0;1189;-2822;2987;-1175;1584;85;3266
667971;1;8;0;1189;-2763;2987;-1135;1741;237;3352
667981;1;8;0;1189;-2644;2937;-1127;1929;417;3300
667991;1;8;0;1189;-2582;2890;-1183;2159;675;3202
668001;1;8;0;1189;-2554;2780;-1216;2209;703;3113
668011;1;8;0;1189;-2447;2624;-1286;2227;754;2989
668021;1;8;0;1189;-2440;2584;-1291;2246;731;2852
668031;1;8;0;1189;-2455;2622;-1238;2185;648;2746
668041;1;8;0;1189;-2441;2726;-1200;2038;506;2766
668051;1;8;0;1189;-2370;2742;-1186;1849;424;2891
668061;1;8;0;1189;-2337;2761;-1215;1698;392;3080
668071;1;8;0;1189;-2288;2679;-1176;1601;464;3227
668081;1;8;0;1189;-2242;2679;-1159;1591;513;3225
668091;1;8;0;1190;-2200;2719;-1149;1607;535;3065
668101;1;8;0;1190;-2151;2761;-1233;1661;552;2833
668111;1;8;0;1190;-2143;2796;-1278;1751;542;2679
668121;1;8;0;1190;-2112;2828;-1326;1804;555;2599
668131;1;8;0;1190;-2093;2843;-1361;1801;618;2616
668141;1;8;0;1190;-2090;2863;-1336;1794;639;2731
668151;1;8;0;1190;-2009;2931;-1322;1775;710;2868
668161;1;8;0;1190;-1913;2812;-1295;1751;875;2960
668171;1;8;0;1190;-1852;2749;-1326;1791;1080;3034
668181;1;8;0;1190;-1781;2565;-1308;1799;1193;2955
668191;1;8;0;1190;-1788;2517;-1318;1775;1211;2798
668201;1;8;0;1190;-2079;2359;-1124;1998;2136;2773
668211;1;8;0;1190;-1648;2613;-1381;1665;1106;2486
668221;1;8;0;1190;-1814;2674;-1259;1606;840;2469
668231;1;8;0;1190;-1762;2678;-1305;1486;694;2505
668241;1;8;0;1190;-1604;2590;-1374;1403;744;2598
668251;1;8;0;1190;-1685;2548;-1440;1348;807;2675
668261;1;8;0;1190;-1749;2562;-1499;1334;814;2612
668271;1;8;0;1190;-1801;2636;-1495;1345;755;2487
668281;1;8;0;1190;-1883;2806;-1482;1341;590;2334
668291;1;8;0;1190;-1909;2963;-1497;1340;524;2217
668301;1;8;0;1190;-1919;3113;-1489;1296;548;2250
668311;1;8;0;1190;-1854;3216;-1485;1270;645;2459
668321;1;8;0;1190;-1774;3291;-1523;1258;741;2685
668331;1;8;0;1190;-1735;3281;-1580;1264;892;2891
668341;1;8;0;1190;-1760;3232;-1563;1295;976;3010
668351;1;8;0;1190;-1732;3148;-1606;1373;1047;3019
668361;1;8;0;1190;-1711;3034;-1626;1391;972;2906
668371;1;8;0;1190;-1709;2963;-1656;1445;875;2775
668381;1;8;0;1190;-1696;3025;-1679;1479;773;2666
668391;1;8;0;1190;-1683;3025;-1660;1421;712;2628
668401;1;8;0;1190;-1630;2967;-1667;1354;646;2672
668411;1;8;0;1190;-1469;2840;-1650;1270;679;2629
668421;1;8;0;1190;-1456;2821;-1646;1195;655;2602
668431;1;8;0;1190;-1296;2744;-1698;1120;702;2487
668441;1;8;0;1190;-1333;2826;-1753;1078;579;2304
668451;1;8;0;1190;-1379;2868;-1827;1005;429;2116
668461;1;8;0;1190;-1437;2992;-1857;941;218;1971
668471;1;8;0;1190;-1476;3122;-1866;883;86;1874
668481;1;8;0;1190;-1468;3235;-1801;879;45;1846
668491;1;8;0;1190;-1385;3292;-1801;941;163;1954
668501;1;8;0;1190;-1345;3251;-1798;1025;436;2060
668511;1;8;0;1190;-1314;3208;-1843;1114;670;2099
668521;1;8;0;1190;-1306;3132;-1875;1162;824;2031
668531;1;8;0;1190;-1293;3034;-1961;1220;883;1869
668541;1;8;0;1190;-1321;3069;-2017;1316;853;1632
668551;1;8;0;1190;-1330;3143;-2039;1426;767;1452
668561;1;8;0;1190;-1340;3284;-2011;1532;735;1384
668571;1;8;0;1190;-1337;3368;-1945;1617;788;1433
668581;1;8;0;1190;-1276;3423;-1951;1651;838;1571
668591;1;8;0;1191;-1282;3457;-1934;1623;797;1776
668601;1;8;0;1191;-1141;3371;-1966;1493;817;1969
668611;1;8;0;1191;-924;3174;-2017;1357;939;2003
668621;1;8;0;1191;-968;3050;-2081;1247;983;1870
668631;1;8;0;1191;-916;3006;-2142;1113;950;1640
668641;1;8;0;1191;-888;2921;-2338;974;948;1315
668651;1;8;0;1191;-1007;2903;-2479;843;908;1049
668661;1;8;0;1191;-1091;2937;-2467;627;870;841
668671;1;8;0;1191;-1218;2968;-2434;421;839;736
668681;1;8;0;1191;-1204;3043;-2293;206;851;670
668691;1;8;0;1191;-1111;3134;-2192;43;970;667
668701;1;8;0;1191;-1029;3201;-2114;-5;1125;680
668711;1;8;0;1191;-924;3248;-2011;27;1268;739
668721;1;8;0;1191;-833;3258;-1991;96;1336;755
668731;1;8;0;1191;-768;3279;-2100;588;2556;800
668741;1;8;0;1191;-699;3128;-2039;220;1215;464
668751;1;8;0;1191;-749;3142;-2056;234;956;277
668761;1;8;0;1191;-878;3216;-2139;204;672;222
668771;1;8;0;1191;-891;3286;-2222;148;422;233
668781;1;8;0;1191;-889;3317;-2311;95;357;317
668791;1;8;0;1191;-922;3322;-2328;106;437;433
668801;1;8;0;1191;-953;3297;-2333;184;577;505
668811;1;8;0;1191;-1006;3295;-2287;211;645;540
668821;1;8;0;1191;-983;3264;-2205;296;728;470
668831;1;8;0;1191;-985;3285;-2183;369;790;389
668841;1;8;0;1191;-943;3274;-2182;359;807;338
668851;1;8;0;1191;-889;3236;-2196;356;829;312
668861;1;8;0;1191;-828;3174;-2212;332;786;314
668871;1;8;0;1191;-846;3137;-2205;284;704;312
668881;1;8;0;1191;-839;3118;-2206;206;602;265
668891;1;8;0;1191;-828;3127;-2232;102;472;196
668901;1;8;0;1191;-790;3142;-2265;20;381;106
668911;1;8;0;1191;-777;3162;-2280;10;335;12
668921;1;8;0;1191;-795;3147;-2289;27;322;-83
668931;1;8;0;1191;-844;3204;-2299;52;324;-145
668941;1;8;0;1191;-864;3222;-2313;43;336;-183
668951;1;8;0;1191;-879;3220;-2327;42;354;-231
668961;1;8;0;1191;-859;3227;-2387;65;410;-268
668971;1;8;0;1191;-808;3188;-2386;94;503;-314
668981;1;8;0;1191;-800;3198;-2387;141;570;-349
668991;1;8;0;1191;-811;3196;-2339;125;584;-348
669001;1;8;0;1191;-834;3200;-2287;49;496;-305
669011;1;8;0;1191;-851;3194;-2237;-74;318;-263
669021;1;8;0;1191;-850;3226;-2236;-166;106;-256
669031;1;8;0;1191;-837;3257;-2274;-217;-22;-256
669041;1;8;0;1191;-814;3240;-2332;-202;-39;-271
669051;1;8;0;1191;-799;3217;-2353;-128;59;-281
669061;1;8;0;1191;-785;3201;-2415;-59;214;-323
669071;1;8;0;1191;-773;3187;-2391;-5;342;-392
669081;1;8;0;1191;-785;3182;-2367;-19;374;-477
669091;1;8;0;1192;-798;3194;-2335;-99;288;-550
669101;1;8;0;1192;-816;3223;-2296;-223;158;-569
669111;1;8;0;1192;-815;3227;-2313;-358;14;-550
669121;1;8;0;1192;-869;3204;-2330;-459;-77;-522
669131;1;8;0;1192;-913;3173;-2309;-526;-82;-521
669141;1;8;0;1192;-955;3149;-2233;-527;-49;-565
669151;1;8;0;1192;-945;3146;-2209;-513;14;-639
669161;1;8;0;1192;-928;3132;-2184;-490;82;-767
669171;1;8;0;1192;-919;3116;-2155;-480;107;-878
669181;1;8;0;1192;-893;3096;-2135;-544;100;-994
669191;1;8;0;1192;-902;3072;-2118;-658;25;-1127
669201;1;8;0;1192;-943;3058;-2101;-826;-93;-1226
669211;1;8;0;1192;-962;3038;-2119;-1007;-241;-1353
669221;1;8;0;1192;-986;3044;-2087;-1198;-397;-1516
669231;1;8;0;1192;-1015;3068;-2120;-1338;-523;-1628
669241;1;8;0;1192;-1049;3130;-2139;-1443;-628;-1690
669251;1;8;0;1192;-982;3189;-2176;-1496;-577;-1684
669261;1;8;0;1192;-889;3183;-2128;-1433;-399;-1725
669271;1;8;0;1192;-864;3104;-2022;-1319;-193;-1833
669281;1;8;0;1192;-940;3024;-1938;-1250;-91;-1972
669291;1;8;0;1192;-1036;2962;-1899;-1299;-176;-2093
669301;1;8;0;1192;-1074;2957;-2002;-1464;-432;-2205
669311;1;8;0;1192;-1195;3107;-2122;-1720;-795;-2225
669321;1;8;0;1192;-1383;3274;-2158;-1993;-1137;-2083
669331;1;8;0;1192;-1540;3435;-2055;-2165;-1331;-1802
669341;1;8;0;1192;-1575;3510;-1974;-2193;-1285;-1513
669351;1;8;0;1192;-1402;3570;-1802;-1978;-996;-1305
669361;1;8;0;1192;-1073;3405;-1666;-1525;-349;-1254
669371;1;8;0;1192;-850;2965;-1507;-919;317;-1448
669381;1;8;0;1192;-769;2654;-1410;-455;667;-1780
669391;1;8;0;1192;-701;2580;-1561;-398;708;-2064
669401;1;8;0;1192;-710;2580;-1919;-815;411;-2161
669411;1;8;0;1192;-985;2765;-2249;-1559;-439;-2138
669421;1;8;0;1192;-1318;3086;-2444;-2514;-1472;-2069
669431;1;8;0;1192;-1486;3298;-2317;-3297;-2247;-1975
669441;1;8;0;1192;-1323;3451;-2021;-3542;-2407;-1874
669451;1;8;0;1192;-869;3506;-1639;-3077;-1842;-1899
669461;1;8;0;1192;-453;3194;-1356;-2137;-802;-2229
669471;1;8;0;1192;-409;2630;-1422;-1273;157;-2726
669481;1;8;0;1192;-614;2114;-1805;-969;627;-3369
669491;1;8;0;1192;-1176;2060;-2326;-1429;126;-3993
669501;1;8;0;1192;-1740;2757;-2828;-2539;-1240;-4365
669511;1;8;0;1192;-2071;3522;-3169;-3911;-2879;-4435
669521;1;8;0;1192;-2262;4150;-2909;-5024;-3842;-4033
669531;1;8;0;1192;-2410;4627;-2356;-5389;-3858;-3508
669541;1;8;0;1192;-2300;4853;-1846;-4981;-2985;-2908
669551;1;8;0;1192;-1866;4652;-1423;-3884;-1527;-2463
669561;1;8;0;1192;-1590;4071;-1059;-2560;-65;-2467
669571;1;8;0;1192;-1508;3437;-1114;-1503;776;-2602
669581;1;8;0;1192;-1377;2915;-1216;-894;1009;-2814
669591;1;8;0;1193;-1307;2634;-1409;-819;423;-2893
669601;1;8;0;1193;-1318;2715;-1576;-1407;-622;-2751
669611;1;8;0;1193;-1291;2842;-1547;-2213;-1448;-2466
669621;1;8;0;1193;-1196;2906;-1325;-2855;-1946;-2252
669631;1;8;0;1193;-1182;2917;-1214;-3155;-2153;-2261
669641;1;8;0;1193;-1278;2925;-1233;-3075;-2101;-2448
669651;1;8;0;1193;-1474;2785;-1367;-2951;-1998;-2771
669661;1;8;0;1193;-1846;2659;-1532;-2841;-1937;-3071
669671;1;8;0;1193;-2123;2709;-1708;-2865;-2106;-3160
669681;1;8;0;1193;-2224;2931;-1771;-3072;-2338;-2955
669691;1;8;0;1193;-2214;3145;-1765;-3275;-2451;-2492
669701;1;8;0;1193;-2053;3375;-1628;-3430;-2480;-1970
669711;1;8;0;1193;-1645;3513;-1422;-3303;-2012;-1746
669721;1;8;0;1193;-1302;3311;-1052;-2776;-1317;-2109
669731;1;8;0;1193;-1333;3048;-927;-1929;-726;-2879
669741;1;8;0;1193;-1620;2797;-1027;-1378;-570;-3532
669751;1;8;0;1193;-2001;2696;-1286;-1321;-811;-3871
669761;1;8;0;1193;-2493;2771;-1493;-1821;-1426;-3754
669771;1;8;0;1193;-2810;3063;-1540;-2675;-2092;-3302
669781;1;8;0;1193;-2788;3390;-1399;-3407;-2616;-2736
669791;1;8;0;1193;-2632;3657;-1195;-3762;-2851;-2327
669801;1;8;0;1193;-2264;3928;-830;-3460;-2553;-1941
669811;1;8;0;1193;-1923;3890;-558;-2818;-1983;-1940
669821;1;8;0;1193;-1719;3633;-374;-1917;-1272;-2284
669831;1;8;0;1193;-1822;3143;-622;-1188;-933;-2649
669841;1;8;0;1193;-2013;2811;-998;-981;-1093;-2737
669851;1;8;0;1193;-2352;2563;-1327;-1294;-1689;-2628
669861;1;8;0;1193;-2650;2434;-1412;-1854;-2222;-2515
669871;1;8;0;1193;-2871;2511;-1262;-2421;-2655;-2586
669881;1;8;0;1193;-2910;2848;-1068;-2783;-2868;-2790
669891;1;8;0;1193;-2742;3214;-858;-2761;-2788;-2935
669901;1;8;0;1193;-2456;3493;-722;-2263;-2315;-2916
669911;1;8;0;1193;-2277;3466;-635;-1711;-1648;-2787
669921;1;8;0;1193;-2172;3220;-629;-1111;-963;-2607
669931;1;8;0;1193;-2181;2905;-672;-802;-630;-2404
669941;1;8;0;1193;-2400;2599;-680;-822;-814;-2243
669951;1;8;0;1193;-2588;2513;-689;-1142;-1249;-2197
669961;1;8;0;1193;-2736;2479;-772;-1674;-1733;-2290
669971;1;8;0;1193;-2806;2563;-778;-2118;-1952;-2443
669981;1;8;0;1193;-2816;2709;-698;-2239;-1877;-2683
669991;1;8;0;1193;-2797;2881;-679;-1915;-1498;-2966
670001;1;8;0;1193;-2660;3075;-761;-1404;-972;-3158
670011;1;8;0;1193;-2662;3064;-779;-1004;-462;-3103
670021;1;8;0;1193;-2787;2852;-669;-867;-183;-2958
670031;1;8;0;1193;-2985;2825;-505;-931;-354;-2848
670041;1;8;0;1193;-3166;2987;-431;-1160;-943;-2698
670051;1;8;0;1193;-3303;3225;-355;-1437;-1522;-2402
670061;1;8;0;1193;-3250;3343;-285;-1531;-1743;-2055
670071;1;8;0;1193;-3119;3420;-293;-1313;-1524;-1689
670081;1;8;0;1193;-2980;3414;-262;-887;-1080;-1406
670091;1;8;0;1194;-2769;3294;-216;-363;-521;-1229
670101;1;8;0;1194;-2588;3015;-282;77;-92;-1061
670111;1;8;0;1194;-2471;2628;-335;261;78;-908
670121;1;8;0;1194;-2496;2346;-338;226;-137;-840
670131;1;8;0;1194;-2588;2162;-359;-32;-571;-816
670141;1;8;0;1194;-2788;2056;-375;-365;-1018;-886
670151;1;8;0;1194;-2899;2065;-490;-640;-1280;-1064
670161;1;8;0;1194;-3034;2147;-581;-850;-1295;-1327
670171;1;8;0;1194;-2966;2320;-634;-799;-1058;-1696
670181;1;8;0;1194;-2769;2511;-654;-617;-666;-1992
670191;1;8;0;1194;-2651;2627;-605;-143;-17;-2113
670201;1;8;0;1194;-2579;2508;-466;194;503;-2029
670211;1;8;0;1194;-2629;2383;-188;300;760;-1828
670221;1;8;0;1194;-2729;2421;-76;116;538;-1555
670231;1;8;0;1194;-2920;2545;7;-184;1;-1206
670241;1;8;0;1194;-2892;2654;-17;-549;-562;-839
670251;1;8;0;1194;-2853;2620;-123;-703;-798;-583
670261;1;8;0;1194;-2840;2485;-333;-643;-694;-458
670271;1;8;0;1194;-2729;2355;-609;-275;-154;-524
670281;1;8;0;1194;-2703;2086;-776;123;467;-726
670291;1;8;0;1194;-2816;1831;-665;371;835;-1071
670301;1;8;0;1194;-2948;1764;-475;443;832;-1480
670311;1;8;0;1194;-3109;2022;-274;274;453;-1726
670321;1;8;0;1194;-3215;2437;-178;-91;-123;-1641
670331;1;8;0;1194;-3179;2589;-134;-422;-377;-1399
670341;1;8;0;1194;-3049;2622;-313;-523;-227;-1251
670351;1;8;0;1194;-2948;2487;-476;-377;206;-1263
670361;1;8;0;1194;-2930;2265;-556;-101;702;-1505
670371;1;8;0;1194;-3041;2194;-512;186;976;-1808
670381;1;8;0;1194;-3294;2188;-386;274;945;-2012
670391;1;8;0;1194;-3391;2405;-245;226;643;-1967
670401;1;8;0;1194;-3660;2656;-47;-42;185;-1639
670411;1;8;0;1194;-3541;2958;-15;-423;-224;-1139
670421;1;8;0;1194;-3264;2839;-157;-627;-188;-735
670431;1;8;0;1194;-3108;2627;-481;-565;60;-599
670441;1;8;0;1194;-3150;2324;-684;-319;472;-730
670451;1;8;0;1194;-3220;1997;-743;-30;890;-1135
670461;1;8;0;1194;-3434;1909;-718;161;1181;-1697
670471;1;8;0;1194;-3782;2029;-641;113;1214;-2135
670481;1;8;0;1194;-4113;2488;-411;-12;628;-2146
670491;1;8;0;1194;-4262;2950;-109;-310;188;-1930
670501;1;8;0;1194;-4089;3407;121;-565;-101;-1422
670511;1;8;0;1194;-3793;3425;100;-645;-37;-921
670521;1;8;0;1194;-3474;3175;-99;-559;154;-532
670531;1;8;0;1194;-3232;2502;-413;-215;441;-431
670541;1;8;0;1194;-3156;1985;-687;4;556;-574
670551;1;8;0;1194;-3176;1698;-766;38;407;-917
670561;1;8;0;1194;-3248;1676;-738;-35;537;-1244
670571;1;8;0;1194;-3394;1855;-717;-233;454;-1324
670581;1;8;0;1194;-3412;1995;-595;-433;440;-1289
670591;1;8;0;1195;-3386;2379;-399;-464;480;-1090
670601;1;8;0;1195;-3371;2553;-287;-432;576;-915
670611;1;8;0;1195;-3311;2617;-220;-341;731;-667
670621;1;8;0;1195;-3237;2393;-308;-239;719;-485
670631;1;8;0;1195;-3277;2027;-435;-111;638;-414
670641;1;8;0;1195;-3390;1793;-604;18;413;-433
670651;1;8;0;1195;-3557;1904;-577;115;285;-525
670661;1;8;0;1195;-3832;2313;-462;177;42;-463
670671;1;8;0;1195;-3625;2433;-434;-26;-378;-368
670681;1;8;0;1195;-3589;2462;-497;45;212;-214
670691;1;8;0;1195;-3469;2242;-639;-61;336;-148
670701;1;8;0;1195;-3477;1954;-645;-88;504;-215
670711;1;8;0;1195;-3529;1827;-665;25;754;-402
670721;1;8;0;1195;-3644;1842;-552;50;667;-603
670731;1;8;0;1195;-3710;1979;-356;0;343;-685
670741;1;8;0;1195;-3822;2311;-206;-110;221;-582
670751;1;8;0;1195;-3659;2511;-197;-306;46;-303
670761;1;8;0;1195;-3573;2585;-221;-473;-34;5
670771;1;8;0;1195;-3497;2530;-303;-813;-414;302
670781;1;8;0;1195;-3475;2264;-468;-729;-16;398
670791;1;8;0;1195;-3526;2062;-753;-661;122;344
670801;1;8;0;1195;-3666;1962;-882;-445;296;246
670811;1;8;0;1195;-3719;2027;-821;-192;464;92
670821;1;8;0;1195;-3744;2174;-574;-44;617;-27
670831;1;8;0;1195;-3713;2287;-364;-25;750;-93
670841;1;8;0;1195;-3647;2440;-244;-111;799;-47
670851;1;8;0;1195;-3608;2431;-193;-235;669;26
670861;1;8;0;1195;-3572;2341;-235;-333;300;20
670871;1;8;0;1195;-3593;2281;-388;-315;-33;-4
670881;1;8;0;1195;-3640;2199;-523;-258;-95;27
670891;1;8;0;1195;-3714;2143;-626;-216;-73;133
670901;1;8;0;1195;-3761;2114;-599;-144;29;245
670911;1;8;0;1195;-3691;2148;-514;-101;106;271
670921;1;8;0;1195;-3476;2221;-424;-124;188;208
670931;1;8;0;1195;-3315;2213;-428;-170;285;199
670941;1;8;0;1195;-3194;2127;-470;-210;336;215
670951;1;8;0;1195;-3174;2014;-551;-230;264;233
670961;1;8;0;1195;-3282;1940;-648;-213;139;230
670971;1;8;0;1195;-3423;2093;-687;-156;36;264
670981;1;8;0;1195;-3550;2239;-693;-54;39;380
670991;1;8;0;1195;-3655;2371;-615;59;121;582
671001;1;8;0;1195;-3631;2474;-494;112;249;805
671011;1;8;0;1195;-3506;2505;-416;85;341;1005
671021;1;8;0;1195;-3362;2376;-441;33;386;1132
671031;1;8;0;1195;-3283;2159;-554;46;310;1140
671041;1;8;0;1195;-3348;1981;-707;127;182;1054
671051;1;8;0;1195;-3581;1973;-765;208;15;890
671061;1;8;0;1195;-3833;2115;-711;268;-166;694
671071;1;8;0;1195;-4021;2385;-539;287;-265;532
671081;1;8;0;1195;-4067;2629;-340;261;-270;440
671091;1;8;0;1196;-3949;2780;-268;229;-198;416
671101;1;8;0;1196;-3706;2754;-329;266;-45;425
671111;1;8;0;1196;-3432;2568;-513;321;114;393
671121;1;8;0;1196;-3279;2314;-694;293;158;388
671131;1;8;0;1196;-3255;2078;-912;210;69;425
671141;1;8;0;1196;-3336;1992;-1040;129;24;467
671151;1;8;0;1196;-3535;2034;-996;80;-4;494
671161;1;8;0;1196;-3722;2231;-859;80;-20;560
671171;1;8;0;1196;-3823;2546;-699;71;36;706
671181;1;8;0;1196;-3816;2800;-547;35;129;926
671191;1;8;0;1196;-3668;2934;-434;21;201;1189
671201;1;8;0;1196;-3476;2912;-379;58;256;1427
671211;1;8;0;1196;-3362;2741;-460;143;233;1583
671221;1;8;0;1196;-3312;2568;-621;251;180;1666
671231;1;8;0;1196;-3328;2363;-866;373;174;1693
671241;1;8;0;1196;-3422;2280;-1018;471;192;1619
671251;1;8;0;1196;-3498;2312;-1066;503;257;1519
671261;1;8;0;1196;-3601;2426;-1003;472;308;1405
671271;1;8;0;1196;-3594;2666;-875;355;324;1384
671281;1;8;0;1196;-3540;2874;-710;250;296;1526
671291;1;8;0;1196;-3496;2935;-555;234;274;1725
671301;1;8;0;1196;-3417;2936;-512;281;255;1914
671311;1;8;0;1196;-3303;2857;-549;385;188;2058
671321;1;8;0;1196;-3247;2698;-670;549;189;2081
671331;1;8;0;1196;-3211;2675;-783;713;183;2027
671341;1;8;0;1196;-3188;2619;-871;853;202;1971
671351;1;8;0;1196;-3226;2619;-874;909;237;1950
671361;1;8;0;1196;-3189;2629;-851;915;226;1904
671371;1;8;0;1196;-3157;2625;-792;915;184;1870
671381;1;8;0;1196;-3136;2676;-749;895;25;1817
671391;1;8;0;1196;-3095;2727;-733;905;-114;1764
671401;1;8;0;1196;-3085;2807;-752;942;-193;1806
671411;1;8;0;1196;-3083;2906;-844;1073;-159;1851
671421;1;8;0;1196;-3132;2996;-865;1189;-148;1974
671431;1;8;0;1196;-3164;3005;-881;1301;-38;2068
671441;1;8;0;1196;-3159;2997;-909;1325;144;2150
671451;1;8;0;1196;-3100;2893;-922;1270;317;2282
671461;1;8;0;1196;-2999;2807;-921;1216;389;2374
671471;1;8;0;1196;-2951;2795;-930;1156;325;2372
671481;1;8;0;1196;-2959;2796;-897;1100;197;2363
671491;1;8;0;1196;-2834;2785;-921;1053;115;2314
671501;1;8;0;1196;-2835;2745;-956;1009;128;2263
671511;1;8;0;1196;-2897;2769;-968;1009;79;2259
671521;1;8;0;1196;-2901;2818;-977;988;-7;2234
671531;1;8;0;1196;-2921;2878;-995;971;-27;2177
671541;1;8;0;1196;-2918;2928;-1048;942;-3;2088
671551;1;8;0;1196;-2892;3036;-1087;903;43;2025
671561;1;8;0;1196;-2815;3086;-1095;924;77;1973
671571;1;8;0;1196;-2733;3149;-1073;955;148;1953
671581;1;8;0;1196;-2593;3177;-1083;1003;283;1953
671591;1;8;0;1197;-2585;3237;-1034;1056;450;1993
671601;1;8;0;1197;-2543;3137;-1011;1091;591;2113
671611;1;8;0;1197;-2505;2967;-1028;1129;761;2184
671621;1;8;0;1197;-2456;2794;-1121;1153;993;2249
671631;1;8;0;1197;-2480;2677;-1176;1174;1059;2232
671641;1;8;0;1197;-2511;2593;-1248;1125;1020;2135
671651;1;8;0;1197;-2582;2602;-1243;1055;834;2039
671661;1;8;0;1197;-2651;2800;-1196;971;552;1965
671671;1;8;0;1197;-2705;3049;-1142;887;276;1945
671681;1;8;0;1197;-2665;3270;-1123;811;138;2063
671691;1;8;0;1197;-2551;3360;-1125;788;307;2214
671701;1;8;0;1197;-2426;3245;-1139;860;597;2365
671711;1;8;0;1197;-2329;3137;-1103;1024;871;2368
671721;1;8;0;1197;-2208;2982;-1150;1193;984;2290
671731;1;8;0;1197;-2240;2858;-1215;1308;971;2146
671741;1;8;0;1197;-2228;2854;-1325;1315;816;2140
671751;1;8;0;1197;-2293;2792;-1327;1279;610;2197
671761;1;8;0;1197;-2323;2792;-1270;1260;400;2302
671771;1;8;0;1197;-2290;2904;-1179;1293;253;2345
671781;1;8;0;1197;-2197;2984;-1154;1333;214;2391
671791;1;8;0;1197;-2080;3069;-1210;1367;321;2443
671801;1;8;0;1197;-2067;3032;-1223;1364;346;2533
671811;1;8;0;1197;-1936;2936;-1315;1378;448;2584
671821;1;8;0;1197;-2015;2961;-1314;1476;465;2514
671831;1;8;0;1197;-2117;3107;-1347;1432;122;2388
671841;1;8;0;1197;-2240;3348;-1305;1391;-278;2306
671851;1;8;0;1197;-2266;3535;-1320;1334;-503;2375
671861;1;8;0;1197;-2125;3562;-1361;1339;-371;2618
671871;1;8;0;1197;-1959;3440;-1436;1396;34;2926
671881;1;8;0;1197;-1801;3132;-1455;1517;533;3042
671891;1;8;0;1197;-1687;2891;-1485;1679;911;2849
671901;1;8;0;1197;-1683;2815;-1536;1711;858;2454
671911;1;8;0;1197;-1695;2810;-1617;1646;631;2085
671921;1;8;0;1197;-1714;2857;-1671;1564;325;1962
671931;1;8;0;1197;-1711;2793;-1638;1492;234;2030
671941;1;8;0;1197;-1667;2885;-1632;1439;279;2155
671951;1;8;0;1197;-1627;2953;-1591;1365;426;2171
671961;1;8;0;1197;-1619;3078;-1530;1312;430;2171
671971;1;8;0;1197;-1713;2992;-1338;1431;1047;2302
671981;1;8;0;1197;-1426;3147;-1655;1140;556;2333
671991;1;8;0;1197;-1526;3086;-1698;1098;441;2473
672001;1;8;0;1197;-1399;2867;-1760;1152;601;2439
672011;1;8;0;1197;-1411;2805;-1699;1233;623;2292
672021;1;8;0;1197;-1401;2805;-1678;1260;702;2021
672031;1;8;0;1197;-1347;2701;-1635;1261;768;1717
672041;1;8;0;1197;-1327;2714;-1599;1223;855;1465
672051;1;8;0;1197;-1331;2690;-1561;1157;880;1423
672061;1;8;0;1197;-1337;2745;-1602;1064;914;1455
672071;1;8;0;1197;-1362;2889;-1637;920;898;1510
672081;1;8;0;1197;-1265;2981;-1613;805;794;1657
672091;1;8;0;1198;-1189;3026;-1580;770;710;1781
672101;1;8;0;1198;-1249;3058;-1496;796;631;1835
672111;1;8;0;1198;-1173;3078;-1473;866;490;1899
672121;1;8;0;1198;-1193;3055;-1436;932;476;1776
672131;1;8;0;1198;-1269;2954;-1404;1066;512;1567
672141;1;8;0;1198;-1285;2978;-1533;1098;308;1442
672151;1;8;0;1198;-1379;3003;-1646;1093;126;1362
672161;1;8;0;1198;-1387;3041;-1713;1064;37;1302
672171;1;8;0;1198;-1398;2993;-1713;1048;65;1268
672181;1;8;0;1198;-1394;3078;-1723;1054;114;1300
672191;1;8;0;1198;-1393;3107;-1729;1055;175;1339
672201;1;8;0;1198;-1307;3111;-1743;1051;246;1431
672211;1;8;0;1198;-1299;3127;-1761;1025;312;1515
672221;1;8;0;1198;-1314;3163;-1738;991;248;1546
672231;1;8;0;1198;-1292;3087;-1737;934;157;1473
672241;1;8;0;1198;-1321;3141;-1750;862;44;1307
672251;1;8;0;1198;-1374;3121;-1792;800;-23;1227
672261;1;8;0;1198;-1408;3164;-1854;790;-62;1263
672271;1;8;0;1198;-1382;3219;-1901;843;58;1437
672281;1;8;0;1198;-1374;3291;-1958;930;221;1602
672291;1;8;0;1198;-1304;3296;-1944;1030;394;1732
672301;1;8;0;1198;-1245;3284;-1857;1129;519;1707
672311;1;8;0;1198;-1151;3222;-1896;1163;536;1609
672321;1;8;0;1198;-1004;3074;-1918;1191;548;1308
672331;1;8;0;1198;-1062;3080;-1979;1172;479;985
672341;1;8;0;1198;-1131;3109;-2016;1090;238;814
672351;1;8;0;1198;-1224;3135;-2051;957;25;729
672361;1;8;0;1198;-1280;3163;-2044;854;-137;703
672371;1;8;0;1198;-1314;3256;-2071;738;-182;736
672381;1;8;0;1198;-1295;3286;-2107;634;-10;812
672391;1;8;0;1198;-1218;3288;-2067;600;219;921
672401;1;8;0;1198;-1181;3266;-2061;582;468;1040
672411;1;8;0;1198;-1113;3206;-2048;572;588;1088
672421;1;8;0;1198;-1061;3192;-1983;539;526;1039
672431;1;8;0;1198;-1014;3186;-1945;412;431;943
672441;1;8;0;1198;-986;3175;-1963;268;236;944
672451;1;8;0;1198;-950;3165;-1980;159;144;941
672461;1;8;0;1198;-912;3166;-2017;130;78;964
672471;1;8;0;1198;-886;3137;-2058;166;121;921
672481;1;8;0;1198;-967;3146;-2056;223;173;748
672491;1;8;0;1198;-1061;3166;-2049;257;118;547
672501;1;8;0;1198;-1133;3231;-2089;189;42;414
672511;1;8;0;1198;-1147;3213;-2071;74;22;343
672521;1;8;0;1198;-1112;3228;-2099;20;2;345
672531;1;8;0;1198;-1101;3261;-2057;20;-22;400
672541;1;8;0;1198;-1049;3295;-2043;62;-43;439
672551;1;8;0;1198;-1054;3326;-2059;90;47;464
672561;1;8;0;1198;-1029;3350;-2028;90;127;497
672571;1;8;0;1198;-987;3364;-2029;90;200;487
672581;1;8;0;1198;-914;3314;-2037;108;258;422
672591;1;8;0;1199;-876;3268;-2051;146;230;327
672601;1;8;0;1199;-939;3246;-2053;166;97;229
672611;1;8;0;1199;-1009;3240;-2043;125;-102;199
672621;1;8;0;1199;-1040;3291;-2028;42;-308;226
672631;1;8;0;1199;-1042;3302;-2049;-39;-414;268
672641;1;8;0;1199;-1055;3303;-2087;-91;-449;293
672651;1;8;0;1199;-1037;3282;-2141;-86;-334;282
672661;1;8;0;1199;-1019;3253;-2228;-48;-128;201
672671;1;8;0;1199;-1009;3241;-2249;14;122;54
672681;1;8;0;1199;-996;3201;-2239;40;286;-114
672691;1;8;0;1199;-1063;3225;-2277;4;311;-163
672701;1;8;0;1199;-1117;3248;-2148;-124;237;-116
672711;1;8;0;1199;-1162;3286;-2049;-319;63;-63
672721;1;8;0;1199;-1220;3314;-1955;-437;-112;-52
672731;1;8;0;1199;-1253;3363;-1916;-447;-260;-46
672741;1;8;0;1199;-1291;3465;-1948;-353;-215;-28
672751;1;8;0;1199;-1291;3582;-1966;-181;-89;49
672761;1;8;0;1199;-1198;3611;-1941;85;245;174
672771;1;8;0;1199;-1083;3557;-1930;384;582;267
672781;1;8;0;1199;-945;3439;-1948;616;827;362
672791;1;8;0;1199;-837;3345;-2026;666;883;401
672801;1;8;0;1199;-838;3242;-2042;509;714;343
672811;1;8;0;1199;-877;3124;-2060;262;304;281
672821;1;8;0;1199;-1021;3144;-2130;-73;-223;145
672831;1;8;0;1199;-1050;3190;-2134;-296;-489;16
672841;1;8;0;1199;-1082;3257;-2141;-343;-561;-124
672851;1;8;0;1199;-1096;3295;-2096;-243;-428;-224
672861;1;8;0;1199;-1086;3330;-2094;-61;-171;-340
672871;1;8;0;1199;-1059;3387;-2083;141;77;-405
672881;1;8;0;1199;-1040;3414;-2082;209;178;-359
672891;1;8;0;1199;-1026;3406;-2079;136;141;-235
672901;1;8;0;1199;-991;3369;-2059;-27;-31;-103
672911;1;8;0;1199;-982;3313;-2048;-203;-246;-8
672921;1;8;0;1199;-991;3275;-2067;-316;-427;-3
672931;1;8;0;1199;-1001;3272;-2069;-326;-455;-41
672941;1;8;0;1199;-1081;3266;-2080;-235;-401;-119
672951;1;8;0;1199;-1196;3355;-2057;-68;-386;-114
672961;1;8;0;1199;-1132;3426;-2128;57;-360;7
672971;1;8;0;1199;-1029;3423;-2192;153;-332;128
672981;1;8;0;1199;-934;3412;-2153;194;-267;270
672991;1;8;0;1199;-890;3348;-2147;204;-222;393
673001;1;8;0;1199;-919;3258;-2142;178;-206;453
673011;1;8;0;1199;-926;3189;-2178;175;-169;420
673021;1;8;0;1199;-953;3143;-2257;206;-42;276
673031;1;8;0;1199;-982;3055;-2301;244;67;38
673041;1;8;0;1199;-1009;3007;-2284;242;151;-225
673051;1;8;0;1199;-1035;3007;-2255;166;175;-469
673061;1;8;0;1199;-967;3046;-2227;15;189;-654
673071;1;8;0;1199;-912;3021;-2178;-171;208;-801
673081;1;8;0;1199;-925;3025;-2138;-333;209;-907
673091;1;8;0;1200;-957;3020;-2131;-458;182;-971
673101;1;8;0;1200;-992;3030;-2087;-545;144;-1004
673111;1;8;0;1200;-1044;3021;-2041;-613;57;-1041
673121;1;8;0;1200;-1085;3008;-1969;-683;-32;-1092
673131;1;8;0;1200;-1071;3014;-1939;-769;-126;-1180
673141;1;8;0;1200;-1050;3012;-1918;-827;-216;-1286
673151;1;8;0;1200;-1083;3024;-1897;-881;-359;-1362
673161;1;8;0;1200;-1084;3133;-1873;-897;-528;-1400
673171;1;8;0;1200;-1033;3222;-1873;-891;-653;-1382
673181;1;8;0;1200;-1011;3236;-1819;-847;-756;-1331
673191;1;8;0;1200;-1010;3303;-1872;-803;-820;-1233
673201;1;8;0;1200;-1012;3329;-1865;-813;-881;-1080
673211;1;8;0;1200;-957;3282;-1846;-847;-888;-926
673221;1;8;0;1200;-947;3188;-1817;-877;-916;-846
673231;1;8;0;1200;-949;3072;-1827;-950;-932;-836
673241;1;8;0;1200;-981;2981;-1833;-1027;-998;-939
673251;1;8;0;1200;-1011;3055;-1888;-1123;-1174;-1100
673261;1;8;0;1200;-1034;3200;-1958;-1222;-1394;-1257
673271;1;8;0;1200;-1082;3418;-2076;-1344;-1555;-1270
673281;1;8;0;1200;-1110;3605;-2177;-1497;-1532;-1134
673291;1;8;0;1200;-1048;3569;-2158;-1568;-1307;-956
673301;1;8;0;1200;-1051;3376;-2023;-1498;-1000;-884
673311;1;8;0;1200;-1085;3133;-1883;-1353;-756;-910
673321;1;8;0;1200;-1117;2962;-1867;-1233;-685;-1029
673331;1;8;0;1200;-1173;2998;-1946;-1217;-791;-1134
673341;1;8;0;1200;-1253;3118;-2001;-1338;-998;-1130
673351;1;8;0;1200;-1367;3291;-1970;-1549;-1261;-1032
673361;1;8;0;1200;-1429;3408;-1886;-1714;-1496;-832
673371;1;8;0;1200;-1351;3531;-1812;-1736;-1442;-661
673381;1;8;0;1200;-1243;3488;-1732;-1593;-1138;-630
673391;1;8;0;1200;-1133;3337;-1761;-1313;-785;-775
673401;1;8;0;1200;-1077;3144;-1829;-1066;-448;-1026
673411;1;8;0;1200;-1179;2976;-1928;-968;-251;-1420
673421;1;8;0;1200;-1364;3000;-2047;-1100;-341;-1747
673431;1;8;0;1200;-1520;3079;-2124;-1508;-586;-1867
673441;1;8;0;1200;-1597;3185;-2089;-1871;-787;-1799
673451;1;8;0;1200;-1574;3262;-1929;-2098;-873;-1618
673461;1;8;0;1200;-1309;3397;-1771;-2078;-690;-1471
673471;1;8;0;1200;-971;3342;-1587;-1834;-260;-1565
673481;1;8;0;1200;-827;3051;-1446;-1522;86;-1884
673491;1;8;0;1200;-975;2806;-1522;-1317;91;-2257
673501;1;8;0;1200;-1240;2802;-1676;-1406;-211;-2575
673511;1;8;0;1200;-1562;2984;-1854;-1842;-766;-2763
673521;1;8;0;1200;-1812;3185;-1947;-2475;-1224;-2713
673531;1;8;0;1200;-1942;3260;-1885;-2944;-1441;-2473
673541;1;8;0;1200;-1936;3379;-1818;-3090;-1432;-2188
673551;1;8;0;1200;-1749;3545;-1709;-2805;-1121;-1992
673561;1;8;0;1200;-1421;3607;-1616;-2272;-501;-2008
673571;1;8;0;1200;-1172;3383;-1530;-1635;189;-2204
673581;1;8;0;1200;-1165;3020;-1557;-1167;629;-2495
673591;1;8;0;1201;-1354;2800;-1584;-1005;645;-2748
673601;1;8;0;1201;-1655;2954;-1651;-1311;94;-2848
673611;1;8;0;1201;-1997;3198;-1616;-1983;-691;-2601
673621;1;8;0;1201;-2101;3466;-1591;-2698;-1274;-2145
673631;1;8;0;1201;-2088;3636;-1533;-3108;-1466;-1630
673641;1;8;0;1201;-1833;3739;-1508;-3118;-1081;-1248
673651;1;8;0;1201;-1384;3427;-1454;-2595;-232;-1381
673661;1;8;0;1201;-1055;2905;-1417;-1608;648;-1959
673671;1;8;0;1201;-1026;2286;-1472;-793;1005;-2731
673681;1;8;0;1201;-1255;2068;-1586;-458;650;-3393
673691;1;8;0;1201;-1675;2387;-1803;-884;-286;-3541
673701;1;8;0;1201;-2020;2915;-1890;-1925;-1194;-3127
673711;1;8;0;1201;-2135;3272;-1756;-2877;-1649;-2538
673721;1;8;0;1201;-2110;3508;-1550;-3391;-1604;-2025
673731;1;8;0;1201;-1944;3523;-1380;-3177;-1019;-1715
673741;1;8;0;1201;-1830;3421;-1326;-2421;-224;-1684
673751;1;8;0;1201;-1858;3175;-1316;-1553;550;-1777
673761;1;8;0;1201;-1923;2951;-1282;-854;1030;-1899
673771;1;8;0;1201;-1857;2824;-1172;-517;1122;-2113
673781;1;8;0;1201;-1783;2807;-1072;-497;786;-2431
673791;1;8;0;1201;-1769;3062;-1089;-717;161;-2670
673801;1;8;0;1201;-1827;3373;-1127;-1130;-488;-2691
673811;1;8;0;1201;-1968;3579;-1253;-1482;-852;-2469
673821;1;8;0;1201;-2035;3515;-1377;-1568;-709;-2016
673831;1;8;0;1201;-2052;3281;-1447;-1339;-162;-1562
673841;1;8;0;1201;-2019;2981;-1363;-857;414;-1427
673851;1;8;0;1201;-1873;2778;-1201;-435;636;-1534
673861;1;8;0;1201;-1701;2652;-1024;-119;584;-1815
673871;1;8;0;1201;-1561;2601;-879;-72;361;-2035
673881;1;8;0;1201;-1553;2619;-825;-294;8;-2111
673891;1;8;0;1201;-1656;2644;-873;-738;-363;-2026
673901;1;8;0;1201;-1820;2642;-1021;-1245;-634;-1924
673911;1;8;0;1201;-1970;2660;-1208;-1662;-702;-1826
673921;1;8;0;1201;-2195;2769;-1445;-1829;-596;-1806
673931;1;8;0;1201;-2435;3026;-1581;-1815;-538;-1837
673941;1;8;0;1201;-2483;3331;-1608;-1517;-333;-1993
673951;1;8;0;1201;-2440;3563;-1443;-1071;16;-2240
673961;1;8;0;1201;-2345;3731;-1152;-494;426;-2421
673971;1;8;0;1201;-2222;3764;-918;-5;764;-2454
673981;1;8;0;1201;-2159;3613;-857;243;980;-2186
673991;1;8;0;1201;-2084;3210;-845;178;1056;-1745
674001;1;8;0;1201;-2156;2789;-952;-126;958;-1355
674011;1;8;0;1201;-2295;2442;-1088;-609;690;-1200
674021;1;8;0;1201;-2429;2339;-1140;-1004;208;-1372
674031;1;8;0;1201;-2617;2605;-1263;-1237;-341;-1661
674041;1;8;0;1201;-2792;3004;-1409;-1360;-644;-1885
674051;1;8;0;1201;-2848;3290;-1507;-1369;-525;-2008
674061;1;8;0;1201;-2811;3380;-1483;-1219;-111;-1946
674071;1;8;0;1201;-2650;3340;-1492;-872;595;-1808
674081;1;8;0;1201;-2503;3067;-1428;-549;1277;-1608
674091;1;8;0;1202;-2411;2785;-1264;-320;1637;-1571
674101;1;8;0;1202;-2392;2578;-1084;-260;1591;-1647
674111;1;8;0;1202;-2375;2574;-937;-339;1126;-1784
674121;1;8;0;1202;-2401;2740;-822;-487;615;-1822
674131;1;8;0;1202;-2470;2995;-752;-645;153;-1710
674141;1;8;0;1202;-2520;3181;-797;-757;-80;-1540
674151;1;8;0;1202;-2493;3191;-935;-740;0;-1391
674161;1;8;0;1202;-2429;3027;-1078;-625;289;-1330
674171;1;8;0;1202;-2455;2734;-1248;-487;626;-1368
674181;1;8;0;1202;-2518;2519;-1390;-393;908;-1491
674191;1;8;0;1202;-2591;2332;-1466;-443;1014;-1689
674201;1;8;0;1202;-2762;2343;-1480;-574;939;-1945
674211;1;8;0;1202;-2938;2578;-1461;-819;724;-2129
674221;1;8;0;1202;-2995;2936;-1356;-1007;505;-2191
674231;1;8;0;1202;-3037;3229;-1209;-1049;404;-2075
674241;1;8;0;1202;-3015;3343;-1075;-976;450;-1795
674251;1;8;0;1202;-2856;3315;-1021;-811;623;-1407
674261;1;8;0;1202;-2744;3192;-993;-611;717;-1049
674271;1;8;0;1202;-2642;3020;-967;-485;643;-835
674281;1;8;0;1202;-2670;2933;-976;-456;487;-757
674291;1;8;0;1202;-2817;2949;-1070;-500;202;-639
674301;1;8;0;1202;-2874;3000;-1231;-649;34;-500
674311;1;8;0;1202;-2936;2874;-1427;-720;35;-343
674321;1;8;0;1202;-2984;2709;-1601;-678;228;-304
674331;1;8;0;1202;-2856;2477;-1648;-502;606;-478
674341;1;8;0;1202;-2734;2292;-1579;-249;961;-845
674351;1;8;0;1202;-2733;2239;-1438;-35;1179;-1339
674361;1;8;0;1202;-2790;2316;-1297;21;1109;-1565
674371;1;8;0;1202;-3059;2655;-1122;-112;722;-1510
674381;1;8;0;1202;-3065;2935;-1051;-328;300;-1266
674391;1;8;0;1202;-3187;3142;-992;-532;-74;-1015
674401;1;8;0;1202;-3235;3151;-1058;-556;-205;-869
674411;1;8;0;1202;-3198;3126;-1178;-445;-204;-846
674421;1;8;0;1202;-3075;2939;-1308;-282;-75;-935
674431;1;8;0;1202;-3027;2758;-1380;-167;153;-992
674441;1;8;0;1202;-2919;2567;-1348;-141;306;-1026
674451;1;8;0;1202;-2946;2526;-1292;-199;256;-1025
674461;1;8;0;1202;-3014;2630;-1229;-317;-2;-971
674471;1;8;0;1202;-3032;2837;-1194;-447;-276;-872
674481;1;8;0;1202;-3007;2867;-1250;-476;-311;-683
674491;1;8;0;1202;-3036;2886;-1251;-393;-190;-532
674501;1;8;0;1202;-2962;2756;-1372;-305;-63;-443
674511;1;8;0;1202;-2840;2558;-1467;-186;86;-453
674521;1;8;0;1202;-2754;2417;-1456;-152;157;-577
674531;1;8;0;1202;-2740;2357;-1407;-132;215;-745
674541;1;8;0;1202;-2796;2347;-1273;-128;136;-829
674551;1;8;0;1202;-2936;2493;-1170;-77;73;-832
674561;1;8;0;1202;-3101;2730;-1137;-63;-190;-652
674571;1;8;0;1202;-3129;2963;-1206;-70;-291;-495
674581;1;8;0;1202;-3084;2801;-1303;-45;-118;-380
674591;1;8;0;1203;-3004;2751;-1365;13;33;-469
674601;1;8;0;1203;-2927;2661;-1413;38;204;-670
674611;1;8;0;1203;-2877;2504;-1461;53;339;-860
674621;1;8;0;1203;-2944;2382;-1419;55;410;-961
674631;1;8;0;1203;-3017;2410;-1321;13;373;-1009
674641;1;8;0;1203;-3034;2480;-1220;-40;240;-935
674651;1;8;0;1203;-3074;2608;-1169;-23;30;-765
674661;1;8;0;1203;-3138;2804;-1145;39;-174;-568
674671;1;8;0;1203;-3087;2800;-1172;66;-202;-388
674681;1;8;0;1203;-3040;2740;-1196;140;-188;-284
674691;1;8;0;1203;-2938;2672;-1278;244;-120;-226
674701;1;8;0;1203;-2888;2556;-1341;288;18;-212
674711;1;8;0;1203;-2915;2478;-1405;329;77;-223
674721;1;8;0;1203;-2964;2429;-1467;329;12;-200
674731;1;8;0;1203;-3045;2429;-1391;377;-26;-232
674741;1;8;0;1203;-3106;2548;-1283;429;-26;-296
674751;1;8;0;1203;-3156;2627;-1207;484;-30;-329
674761;1;8;0;1203;-3179;2768;-1121;507;-107;-267
674771;1;8;0;1203;-3115;2764;-1128;427;-121;-280
674781;1;8;0;1203;-3055;2666;-1212;336;-133;-204
674791;1;8;0;1203;-3043;2553;-1315;282;-147;-121
674801;1;8;0;1203;-3098;2406;-1408;202;-188;-31
674811;1;8;0;1203;-3177;2331;-1435;182;-271;-27
674821;1;8;0;1203;-3203;2436;-1380;155;-446;-154
674831;1;8;0;1203;-3205;2586;-1341;228;-428;-233
674841;1;8;0;1203;-3163;2705;-1304;320;-380;-260
674851;1;8;0;1203;-3023;2708;-1242;366;-274;-134
674861;1;8;0;1203;-2965;2698;-1222;320;-144;-72
674871;1;8;0;1203;-2973;2611;-1237;209;-106;-54
674881;1;8;0;1203;-3045;2584;-1309;141;-129;-5
674891;1;8;0;1203;-3135;2576;-1387;129;-162;76
674901;1;8;0;1203;-3195;2609;-1387;146;-151;134
674911;1;8;0;1203;-3173;2643;-1335;220;-91;139
674921;1;8;0;1203;-3175;2805;-1256;261;-100;182
674931;1;8;0;1203;-3151;2914;-1305;188;-92;271
674941;1;8;0;1203;-3079;2882;-1347;54;-128;437
674951;1;8;0;1203;-3104;2797;-1440;-66;-108;559
674961;1;8;0;1203;-3243;2748;-1516;-90;-92;622
674971;1;8;0;1203;-3430;2816;-1596;-42;-62;610
674981;1;8;0;1203;-3513;2941;-1533;25;1;587
674991;1;8;0;1203;-3515;3099;-1425;107;104;589
675001;1;8;0;1203;-3427;3222;-1321;173;217;656
675011;1;8;0;1203;-3353;3256;-1201;115;300;776
675021;1;8;0;1203;-3333;3189;-1194;-14;272;903
675031;1;8;0;1203;-3318;3083;-1305;-144;136;1020
675041;1;8;0;1203;-3331;2976;-1489;-205;67;1141
675051;1;8;0;1203;-3370;2859;-1601;-169;105;1159
675061;1;8;0;1203;-3346;2804;-1670;-71;198;1006
675071;1;8;0;1203;-3249;2798;-1694;67;387;761
675081;1;8;0;1203;-3162;2766;-1662;152;552;533
675091;1;8;0;1204;-3117;2799;-1545;160;594;389
675101;1;8;0;1204;-3102;2876;-1436;95;481;390
675111;1;8;0;1204;-3107;2898;-1336;6;298;509
675121;1;8;0;1204;-3094;2975;-1270;-151;48;678
675131;1;8;0;1204;-3094;3039;-1270;-272;-148;817
675141;1;8;0;1204;-3080;3085;-1333;-304;-255;912
675151;1;8;0;1204;-3005;3122;-1460;-249;-172;987
675161;1;8;0;1204;-2961;3036;-1562;-138;94;1036
675171;1;8;0;1204;-2947;2929;-1606;0;380;1038
675181;1;8;0;1204;-2979;2879;-1636;118;518;988
675191;1;8;0;1204;-3038;2842;-1596;158;467;993
675201;1;8;0;1204;-3035;2917;-1493;133;276;1078
675211;1;8;0;1204;-2979;3018;-1409;31;119;1252
675221;1;8;0;1204;-2884;3051;-1389;-47;60;1479
675231;1;8;0;1204;-2749;3006;-1398;-73;123;1655
675241;1;8;0;1204;-2600;2950;-1446;4;262;1727
675251;1;8;0;1204;-2516;2810;-1489;182;454;1626
675261;1;8;0;1204;-2505;2729;-1465;431;585;1391
675271;1;8;0;1204;-2583;2712;-1475;634;565;1160
675281;1;8;0;1204;-2682;2675;-1487;696;452;1033
675291;1;8;0;1204;-2759;2701;-1463;643;250;1042
675301;1;8;0;1204;-2771;2783;-1465;547;103;1129
675311;1;8;0;1204;-2746;2813;-1474;454;55;1278
675321;1;8;0;1204;-2716;2828;-1439;456;92;1399
675331;1;8;0;1204;-2724;2879;-1461;508;105;1461
675341;1;8;0;1204;-2669;2881;-1539;554;145;1500
675351;1;8;0;1204;-2595;2844;-1592;605;218;1499
675361;1;8;0;1204;-2553;2780;-1602;644;299;1476
675371;1;8;0;1204;-2514;2737;-1547;700;323;1361
675381;1;8;0;1204;-2469;2772;-1395;731;243;1193
675391;1;8;0;1204;-2496;2870;-1289;726;69;1054
675401;1;8;0;1204;-2555;2973;-1234;616;-167;1085
675411;1;8;0;1204;-2588;3061;-1305;457;-405;1320
675421;1;8;0;1204;-2542;3078;-1399;303;-556;1659
675431;1;8;0;1204;-2542;3107;-1452;203;-589;1936
675441;1;8;0;1204;-2480;3132;-1502;204;-611;2117
675451;1;8;0;1204;-2426;3124;-1553;279;-627;2149
675461;1;8;0;1204;-2367;3080;-1644;384;-566;2099
675471;1;8;0;1204;-2425;3037;-1677;456;-519;2030
675481;1;8;0;1204;-2453;2952;-1668;492;-551;1996
675491;1;8;0;1204;-2505;3002;-1636;517;-640;1968
675501;1;8;0;1204;-2540;3081;-1621;483;-778;2029
675511;1;8;0;1204;-2483;3194;-1658;437;-845;2163
675521;1;8;0;1204;-2479;3257;-1703;373;-831;2287
675531;1;8;0;1204;-2424;3253;-1726;348;-770;2338
675541;1;8;0;1204;-2348;3171;-1692;421;-712;2324
675551;1;8;0;1204;-2298;3117;-1695;510;-600;2195
675561;1;8;0;1204;-2230;3041;-1705;635;-513;2067
675571;1;8;0;1204;-2253;3001;-1686;719;-615;2021
675581;1;8;0;1204;-2207;2982;-1608;715;-757;2003
675591;1;8;0;1205;-2102;2921;-1571;654;-863;1994
675601;1;8;0;1205;-2058;2898;-1522;596;-851;2015
675611;1;8;0;1205;-1955;2725;-1598;572;-783;2043
675621;1;8;0;1205;-1932;2680;-1689;637;-740;1983
675631;1;8;0;1205;-2012;2655;-1770;717;-739;1879
675641;1;8;0;1205;-2072;2776;-1811;740;-810;1764
675651;1;8;0;1205;-2061;2913;-1808;741;-893;1729
675661;1;8;0;1205;-2062;2984;-1739;744;-870;1753
675671;1;8;0;1205;-2076;3056;-1628;825;-776;1810
675681;1;8;0;1205;-1997;3073;-1584;895;-607;1852
675691;1;8;0;1205;-1911;3024;-1541;1008;-343;1862
675701;1;8;0;1205;-1773;2893;-1532;1171;-144;1905
675711;1;8;0;1205;-1682;2850;-1444;1325;-26;1937
675721;1;8;0;1205;-1686;2741;-1369;1380;6;1964
675731;1;8;0;1205;-1625;2720;-1328;1339;-182;2076
675741;1;8;0;1205;-1652;2747;-1386;1167;-442;2257
675751;1;8;0;1205;-1589;2666;-1494;980;-605;2383
675761;1;8;0;1205;-1590;2682;-1533;870;-719;2392
675771;1;8;0;1205;-1631;2744;-1578;819;-783;2283
675781;1;8;0;1205;-1683;2723;-1552;885;-722;2108
675791;1;8;0;1205;-1696;2759;-1510;1049;-658;1901
675801;1;8;0;1205;-1722;2828;-1516;1138;-552;1872
675811;1;8;0;1205;-1663;2802;-1594;1129;-454;1956
675821;1;8;0;1205;-1630;2747;-1608;1109;-346;2166
675831;1;8;0;1205;-1528;2594;-1648;1065;-200;2342
675841;1;8;0;1205;-1474;2504;-1652;1101;-10;2420
675851;1;8;0;1205;-1566;2527;-1545;1150;-15;2322
675861;1;8;0;1205;-1651;2720;-1474;1124;-157;2157
675871;1;8;0;1205;-1668;2881;-1457;1053;-382;2018
675881;1;8;0;1205;-1618;2991;-1454;944;-510;1999
675891;1;8;0;1205;-1602;3065;-1447;812;-472;2095
675901;1;8;0;1205;-1579;3035;-1391;695;-418;2329
675911;1;8;0;1205;-1398;2807;-1311;697;-228;2508
675921;1;8;0;1205;-1359;2742;-1294;768;-126;2555
675931;1;8;0;1205;-1254;2655;-1277;857;-135;2627
675941;1;8;0;1205;-1269;2639;-1211;935;-142;2522
675951;1;8;0;1205;-1228;2727;-1289;987;-188;2426
675961;1;8;0;1205;-1298;2833;-1404;948;-411;2384
675971;1;8;0;1205;-1312;2892;-1502;903;-546;2360
675981;1;8;0;1205;-1366;2972;-1563;844;-597;2264
675991;1;8;0;1205;-1391;3048;-1609;789;-615;2108
676001;1;8;0;1205;-1429;3083;-1704;804;-619;1947
676011;1;8;0;1205;-1465;3126;-1766;913;-580;1787
676021;1;8;0;1205;-1464;3074;-1773;1044;-474;1679
676031;1;8;0;1205;-1512;3074;-1774;1161;-384;1592
676041;1;8;0;1205;-1546;3055;-1752;1225;-358;1579
676051;1;8;0;1205;-1506;3055;-1807;1228;-344;1643
676061;1;8;0;1205;-1416;2992;-1815;1223;-223;1692
676071;1;8;0;1205;-1365;2965;-1806;1249;-106;1657
676081;1;8;0;1205;-1334;3051;-1847;1264;-35;1574
676091;1;8;0;1206;-1338;3179;-1869;1233;-9;1435
676101;1;8;0;1206;-1343;3261;-1899;1160;-101;1334
676111;1;8;0;1206;-1344;3273;-1930;1076;-169;1300
676121;1;8;0;1206;-1334;3269;-1965;1001;-222;1320
676131;1;8;0;1206;-1289;3328;-1964;948;-219;1354
676141;1;8;0;1206;-1273;3260;-1955;954;-163;1417
676151;1;8;0;1206;-1288;3229;-1926;931;-134;1383
676161;1;8;0;1206;-1276;3262;-1980;898;-103;1296
676171;1;8;0;1206;-1241;3197;-1999;852;-75;1173
676181;1;8;0;1206;-1177;3176;-2038;788;-9;990
676191;1;8;0;1206;-1113;3168;-2061;743;85;760
676201;1;8;0;1206;-1089;3103;-2049;720;181;561
676211;1;8;0;1206;-1029;3120;-2007;679;278;299
676221;1;8;0;1206;-1062;3046;-1914;627;247;-15
676231;1;8;0;1206;-1048;3040;-1935;555;177;-178
676241;1;8;0;1206;-933;2948;-2027;458;156;-225
676251;1;8;0;1206;-1013;2917;-2047;387;70;-219
676261;1;8;0;1206;-1180;2946;-2036;213;-54;-156
676271;1;8;0;1206;-1219;3008;-2051;0;-328;-89
676281;1;8;0;1206;-1257;3059;-1971;-202;-526;30
676291;1;8;0;1206;-1286;3140;-1928;-412;-578;152
676301;1;8;0;1206;-1305;3285;-1910;-608;-530;320
676311;1;8;0;1206;-1263;3354;-1924;-657;-380;391
676321;1;8;0;1206;-1200;3463;-1946;-569;-172;399
676331;1;8;0;1206;-1146;3492;-1979;-389;74;404
676341;1;8;0;1206;-1176;3471;-1995;-116;274;361
676351;1;8;0;1206;-1215;3496;-2024;158;504;312
676361;1;8;0;1206;-1200;3379;-2016;340;656;236
676371;1;8;0;1206;-1278;3357;-2001;526;728;162
676381;1;8;0;1206;-1262;3377;-1979;606;644;195
676391;1;8;0;1206;-1238;3460;-1943;583;457;338
676401;1;8;0;1206;-1181;3484;-1907;485;244;588
676411;1;8;0;1206;-1136;3457;-1840;402;59;881
676421;1;8;0;1206;-1085;3433;-1845;334;-84;1096
676431;1;8;0;1206;-980;3322;-1899;315;-85;1147
676441;1;8;0;1206;-980;3253;-1935;356;-57;1020
676451;1;8;0;1206;-1033;3148;-2047;366;19;850
676461;1;8;0;1206;-1032;3081;-2168;359;140;622
676471;1;8;0;1206;-1058;2967;-2260;307;244;393
676481;1;8;0;1206;-1189;2966;-2316;175;268;129
676491;1;8;0;1206;-1247;3022;-2385;42;243;-23
676501;1;8;0;1206;-1240;3102;-2367;-164;250;-161
676511;1;8;0;1206;-1250;3177;-2270;-274;322;-270
676521;1;8;0;1206;-1271;3253;-2159;-331;447;-275
676531;1;8;0;1206;-1277;3289;-2019;-342;600;-244
676541;1;8;0;1206;-1296;3314;-1979;-385;705;-218
676551;1;8;0;1206;-1218;3273;-1887;-422;731;-227
676561;1;8;0;1206;-1200;3256;-1874;-448;619;-328
676571;1;8;0;1206;-1184;3300;-1916;-469;492;-436
676581;1;8;0;1206;-1185;3328;-1950;-459;436;-504
676591;1;8;0;1207;-1202;3361;-1986;-382;465;-522
676601;1;8;0;1207;-1238;3361;-1961;-319;545;-453
676611;1;8;0;1207;-1243;3323;-1881;-257;586;-411
676621;1;8;0;1207;-1249;3252;-1829;-240;505;-423
676631;1;8;0;1207;-1267;3262;-1778;-283;299;-459
676641;1;8;0;1207;-1298;3305;-1757;-300;131;-439
676651;1;8;0;1207;-1296;3385;-1880;-461;-128;-355
676661;1;8;0;1207;-1294;3388;-1911;-542;-240;-288
676671;1;8;0;1207;-1249;3353;-1964;-518;-143;-260
676681;1;8;0;1207;-1230;3240;-1914;-389;61;-331
676691;1;8;0;1207;-1254;3190;-1894;-259;197;-454
676701;1;8;0;1207;-1293;3164;-1870;-209;180;-581
676711;1;8;0;1207;-1331;3201;-1847;-312;-1;-714
676721;1;8;0;1207;-1298;3235;-1858;-485;-278;-753
676731;1;8;0;1207;-1291;3260;-1903;-687;-520;-675
676741;1;8;0;1207;-1267;3286;-1946;-775;-618;-621
676751;1;8;0;1207;-1282;3301;-1938;-747;-592;-558
676761;1;8;0;1207;-1307;3279;-1914;-643;-476;-556
676771;1;8;0;1207;-1312;3229;-1840;-534;-345;-614
676781;1;8;0;1207;-1325;3168;-1781;-422;-293;-730
676791;1;8;0;1207;-1362;3180;-1722;-394;-372;-834
676801;1;8;0;1207;-1339;3185;-1765;-463;-534;-875
676811;1;8;0;1207;-1335;3203;-1809;-565;-761;-853
676821;1;8;0;1207;-1307;3281;-1875;-681;-932;-762
676831;1;8;0;1207;-1224;3280;-1896;-765;-865;-655
676841;1;8;0;1207;-1184;3155;-1857;-776;-714;-656
676851;1;8;0;1207;-1122;3017;-1784;-707;-514;-800
676861;1;8;0;1207;-1136;2917;-1742;-615;-359;-1059
676871;1;8;0;1207;-1167;2854;-1732;-588;-298;-1249
676881;1;8;0;1207;-1213;2816;-1811;-667;-400;-1444
676891;1;8;0;1207;-1267;2876;-1955;-859;-591;-1565
676901;1;8;0;1207;-1328;3020;-2029;-1107;-816;-1614
676911;1;8;0;1207;-1177;3223;-2038;-1339;-814;-1593
676921;1;8;0;1207;-1112;3185;-1897;-1337;-640;-1611
676931;1;8;0;1207;-1063;3055;-1680;-1150;-391;-1759
676941;1;8;0;1207;-1044;2999;-1583;-909;-177;-1937
676951;1;8;0;1207;-1135;2808;-1581;-754;30;-2063
676961;1;8;0;1207;-1368;2715;-1688;-793;-47;-2122
676971;1;8;0;1207;-1506;2879;-1865;-1053;-388;-2104
676981;1;8;0;1207;-1645;3163;-1971;-1418;-805;-2052
676991;1;8;0;1207;-1712;3443;-1981;-1771;-1055;-1811
677001;1;8;0;1207;-1753;3641;-1836;-1925;-1055;-1433
677011;1;8;0;1207;-1595;3746;-1704;-1820;-698;-1006
677021;1;8;0;1207;-1311;3636;-1534;-1436;-142;-772
677031;1;8;0;1207;-1034;3232;-1406;-852;536;-678
677041;1;8;0;1207;-1013;2767;-1313;-332;989;-686
677051;1;8;0;1207;-1124;2543;-1432;-156;933;-824
677061;1;8;0;1207;-1238;2669;-1676;-440;449;-947
677071;1;8;0;1207;-1306;2861;-1929;-1137;-253;-1010
677081;1;8;0;1207;-1374;3059;-2104;-1863;-860;-1040
677091;1;8;0;1208;-1552;3272;-2088;-2384;-1247;-1012
677101;1;8;0;1208;-1671;3462;-1921;-2450;-1253;-1038
677111;1;8;0;1208;-1455;3533;-1769;-2157;-770;-994
677121;1;8;0;1208;-1252;3296;-1676;-1607;-93;-986
677131;1;8;0;1208;-1271;3030;-1713;-966;482;-928
677141;1;8;0;1208;-1428;2798;-1718;-631;719;-901
677151;1;8;0;1208;-1580;2846;-1746;-733;507;-963
677161;1;8;0;1208;-1549;2939;-1768;-1198;151;-1089
677171;1;8;0;1208;-1488;3099;-1759;-1661;-241;-1331
677181;1;8;0;1208;-1486;3287;-1682;-1914;-518;-1540
677191;1;8;0;1208;-1514;3400;-1616;-1957;-645;-1561
677201;1;8;0;1208;-1589;3487;-1606;-1916;-624;-1354
677211;1;8;0;1208;-1680;3423;-1689;-1919;-427;-981
677221;1;8;0;1208;-1712;3309;-1748;-1923;-280;-740
677231;1;8;0;1208;-1689;3282;-1748;-1838;-195;-697
677241;1;8;0;1208;-1654;3352;-1686;-1683;-237;-936
677251;1;8;0;1208;-1600;3409;-1562;-1408;-267;-1244
677261;1;8;0;1208;-1560;3386;-1435;-1150;-251;-1488
677271;1;8;0;1208;-1601;3333;-1436;-1006;-183;-1552
677281;1;8;0;1208;-1603;3216;-1495;-1041;-113;-1362
677291;1;8;0;1208;-1651;3061;-1629;-1261;-40;-1030
677301;1;8;0;1208;-1702;2969;-1676;-1550;-73;-816
677311;1;8;0;1208;-1678;2926;-1726;-1787;-114;-859
677321;1;8;0;1208;-1546;2954;-1720;-1812;-75;-1214
677331;1;8;0;1208;-1444;2931;-1608;-1607;-73;-1607
677341;1;8;0;1208;-1494;2999;-1427;-1259;-173;-2006
677351;1;8;0;1208;-1608;3194;-1355;-1062;-309;-2087
677361;1;8;0;1208;-1728;3338;-1331;-1123;-312;-1787
677371;1;8;0;1208;-1846;3280;-1397;-1394;-146;-1193
677381;1;8;0;1208;-1985;3146;-1398;-1690;-77;-661
677391;1;8;0;1208;-2013;3175;-1461;-1889;-175;-418
677401;1;8;0;1208;-1847;3183;-1544;-1868;-103;-451
677411;1;8;0;1208;-1571;3046;-1495;-1537;108;-825
677421;1;8;0;1208;-1395;2922;-1482;-951;319;-1433
677431;1;8;0;1208;-1406;2743;-1414;-399;432;-1946
677441;1;8;0;1208;-1562;2749;-1426;-143;379;-2208
677451;1;8;0;1208;-1859;2947;-1468;-355;154;-2128
677461;1;8;0;1208;-2154;3198;-1492;-997;-274;-1729
677471;1;8;0;1208;-2211;3445;-1470;-1709;-657;-1297
677481;1;8;0;1208;-2126;3552;-1349;-2146;-769;-959
677491;1;8;0;1208;-1973;3596;-1276;-2075;-602;-844
677501;1;8;0;1208;-1766;3484;-1224;-1596;-199;-965
677511;1;8;0;1208;-1705;3262;-1274;-888;212;-1307
677521;1;8;0;1208;-1667;3012;-1399;-278;544;-1635
677531;1;8;0;1208;-1802;2747;-1517;66;752;-2004
677541;1;8;0;1208;-2020;2635;-1645;40;669;-2335
677551;1;8;0;1208;-2341;2825;-1729;-359;322;-2500
677561;1;8;0;1208;-2432;3178;-1678;-932;-56;-2386
677571;1;8;0;1208;-2357;3557;-1503;-1411;-293;-2069
677581;1;8;0;1208;-2181;3770;-1246;-1593;-292;-1633
677591;1;8;0;1209;-2026;3887;-1053;-1367;-135;-1207
677601;1;8;0;1209;-1857;3889;-925;-915;121;-835
677611;1;8;0;1209;-1729;3658;-915;-450;426;-597
677621;1;8;0;1209;-1772;3235;-1037;-78;556;-512
677631;1;8;0;1209;-1926;2940;-1330;0;484;-520
677641;1;8;0;1209;-2052;2678;-1563;-179;214;-707
677651;1;8;0;1209;-2297;2724;-1710;-553;-266;-1045
677661;1;8;0;1209;-2343;2886;-1647;-823;-591;-1272
677671;1;8;0;1209;-2233;3133;-1449;-943;-649;-1363
677681;1;8;0;1209;-2187;3421;-1277;-909;-431;-1247
677691;1;8;0;1209;-2128;3533;-1168;-776;-101;-1039
677701;1;8;0;1209;-2077;3541;-1108;-580;125;-892
677711;1;8;0;1209;-2007;3477;-1156;-405;211;-801
677721;1;8;0;1209;-1945;3298;-1211;-229;231;-754
677731;1;8;0;1209;-1988;3072;-1232;-125;159;-746
677741;1;8;0;1209;-2081;2914;-1332;-175;65;-818
677751;1;8;0;1209;-2131;2765;-1397;-352;-16;-887
677761;1;8;0;1209;-2174;2733;-1463;-558;-72;-990
677771;1;8;0;1209;-2185;2799;-1523;-724;-57;-1149
677781;1;8;0;1209;-2207;2949;-1519;-767;74;-1337
677791;1;8;0;1209;-2235;3091;-1537;-716;316;-1523
677801;1;8;0;1209;-2261;3120;-1484;-579;633;-1612
677811;1;8;0;1209;-2264;3153;-1361;-397;895;-1640
677821;1;8;0;1209;-2250;3227;-1203;-266;989;-1586
677831;1;8;0;1209;-2186;3278;-1099;-253;853;-1423
677841;1;8;0;1209;-2108;3277;-1069;-359;684;-1225
677851;1;8;0;1209;-2112;3196;-1046;-479;570;-1112
677861;1;8;0;1209;-2177;3128;-1063;-508;502;-1156
677871;1;8;0;1209;-2203;3093;-1154;-467;527;-1279
677881;1;8;0;1209;-2169;3013;-1341;-402;678;-1380
677891;1;8;0;1209;-2186;2849;-1514;-334;974;-1424
677901;1;8;0;1209;-2224;2705;-1548;-369;1135;-1406
677911;1;8;0;1209;-2275;2584;-1466;-471;1078;-1430
677921;1;8;0;1209;-2324;2646;-1289;-618;781;-1493
677931;1;8;0;1209;-2325;2951;-1131;-799;348;-1552
677941;1;8;0;1209;-2333;3192;-1018;-904;26;-1480
677951;1;8;0;1209;-2301;3473;-952;-932;-85;-1296
677961;1;8;0;1209;-2190;3603;-1057;-803;140;-1092
677971;1;8;0;1209;-2148;3370;-1146;-513;543;-942
677981;1;8;0;1209;-2196;3088;-1369;-180;883;-834
677991;1;8;0;1209;-2264;2743;-1627;13;1170;-735
678001;1;8;0;1209;-2322;2463;-1730;1;1291;-694
678011;1;8;0;1209;-2401;2316;-1733;-188;1190;-805
678021;1;8;0;1209;-2489;2371;-1515;-405;859;-1119
678031;1;8;0;1209;-2571;2750;-1248;-586;358;-1504
678041;1;8;0;1209;-2615;3268;-1075;-642;-182;-1686
678051;1;8;0;1209;-2596;3894;-970;-650;-278;-1423
678061;1;8;0;1209;-2451;4138;-1027;-519;-29;-811
678071;1;8;0;1209;-2479;3814;-1151;-247;378;-235
678081;1;8;0;1209;-2529;3248;-1354;79;684;175
678091;1;8;0;1210;-2615;2865;-1635;226;891;379
678101;1;8;0;1210;-2663;2546;-1841;159;905;340
678111;1;8;0;1210;-2644;2450;-1926;24;763;73
678121;1;8;0;1210;-2656;2531;-1902;-205;605;-304
678131;1;8;0;1210;-2681;2626;-1705;-382;609;-704
678141;1;8;0;1210;-2648;2919;-1417;-462;579;-1096
678151;1;8;0;1210;-2617;3262;-1242;-454;571;-1237
678161;1;8;0;1210;-2563;3458;-1184;-485;633;-1015
678171;1;8;0;1210;-2556;3411;-1163;-494;700;-713
678181;1;8;0;1210;-2637;3233;-1218;-496;682;-448
678191;1;8;0;1210;-2720;3103;-1384;-503;501;-337
678201;1;8;0;1210;-2785;3029;-1544;-480;325;-331
678211;1;8;0;1210;-2825;3004;-1581;-499;289;-429
678221;1;8;0;1210;-2798;2988;-1610;-522;418;-562
678231;1;8;0;1210;-2681;3030;-1566;-553;660;-731
678241;1;8;0;1210;-2580;3079;-1512;-559;840;-802
678251;1;8;0;1210;-2492;3070;-1353;-549;865;-769
678261;1;8;0;1210;-2432;3074;-1299;-514;785;-664
678271;1;8;0;1210;-2489;3019;-1291;-512;618;-496
678281;1;8;0;1210;-2568;2969;-1383;-569;410;-300
678291;1;8;0;1210;-2602;2980;-1396;-684;207;-158
678301;1;8;0;1210;-2611;2973;-1415;-816;157;-89
678311;1;8;0;1210;-2522;3015;-1400;-870;248;-102
678321;1;8;0;1210;-2407;3049;-1359;-828;451;-99
678331;1;8;0;1210;-2315;3015;-1345;-742;662;-54
678341;1;8;0;1210;-2309;2989;-1289;-688;770;33
678351;1;8;0;1210;-2352;2906;-1251;-693;716;142
678361;1;8;0;1210;-2391;2874;-1359;-723;528;247
678371;1;8;0;1210;-2362;2746;-1557;-735;351;332
678381;1;8;0;1210;-2395;2624;-1735;-682;409;216
678391;1;8;0;1210;-2480;2605;-1716;-593;565;-65
678401;1;8;0;1210;-2515;2713;-1634;-512;780;-412
678411;1;8;0;1210;-2524;2862;-1469;-483;956;-568
678421;1;8;0;1210;-2515;2973;-1249;-490;981;-508
678431;1;8;0;1210;-2469;3079;-1141;-538;951;-319
678441;1;8;0;1210;-2424;3062;-1089;-545;774;-59
678451;1;8;0;1210;-2462;3024;-1098;-462;536;56
678461;1;8;0;1210;-2556;3018;-1188;-369;244;103
678471;1;8;0;1210;-2581;3063;-1360;-249;142;43
678481;1;8;0;1210;-2608;3092;-1554;-146;317;3
678491;1;8;0;1210;-2583;3048;-1511;-81;531;-19
678501;1;8;0;1210;-2446;2998;-1453;32;849;-125
678511;1;8;0;1210;-2292;2957;-1392;157;1102;-257
678521;1;8;0;1210;-2230;2873;-1360;208;1221;-370
678531;1;8;0;1210;-2279;2813;-1266;113;1038;-472
678541;1;8;0;1210;-2399;2863;-1301;-69;627;-529
678551;1;8;0;1210;-2561;2970;-1363;-240;289;-530
678561;1;8;0;1210;-2691;3070;-1461;-335;90;-440
678571;1;8;0;1210;-2738;3173;-1556;-303;174;-337
678581;1;8;0;1210;-2630;3210;-1566;-200;484;-192
678591;1;8;0;1211;-2474;3163;-1500;-73;814;-25
678601;1;8;0;1211;-2369;3065;-1409;-9;973;82
678611;1;8;0;1211;-2319;2948;-1289;-36;921;138
678621;1;8;0;1211;-2395;2946;-1237;-182;718;160
678631;1;8;0;1211;-2569;3028;-1220;-293;372;156
678641;1;8;0;1211;-2651;3137;-1329;-385;52;225
678651;1;8;0;1211;-2648;3214;-1473;-400;55;280
678661;1;8;0;1211;-2546;3162;-1630;-307;294;351
678671;1;8;0;1211;-2483;2966;-1645;-161;579;358
678681;1;8;0;1211;-2490;2871;-1496;-78;641;185
678691;1;8;0;1211;-2500;2956;-1398;-68;486;40
678701;1;8;0;1211;-2497;3083;-1311;-125;271;44
678711;1;8;0;1211;-2535;3204;-1333;-184;88;164
678721;1;8;0;1211;-2546;3246;-1388;-203;29;286
678731;1;8;0;1211;-2531;3168;-1451;-155;114;328
678741;1;8;0;1211;-2474;3059;-1556;-86;244;277
678751;1;8;0;1211;-2412;2937;-1647;-40;412;244
678761;1;8;0;1211;-2398;2822;-1738;-64;520;217
678771;1;8;0;1211;-2393;2778;-1757;-89;528;149
678781;1;8;0;1211;-2351;2891;-1702;-55;493;39
678791;1;8;0;1211;-2346;3047;-1533;-3;481;-62
678801;1;8;0;1211;-2394;3151;-1380;-35;471;-105
678811;1;8;0;1211;-2436;3156;-1335;-84;434;-98
678821;1;8;0;1211;-2474;3159;-1395;-125;376;-77
678831;1;8;0;1211;-2497;3118;-1512;-164;352;-14
678841;1;8;0;1211;-2506;3026;-1642;-120;358;95
678851;1;8;0;1211;-2492;2998;-1763;-79;394;183
678861;1;8;0;1211;-2464;2943;-1774;-101;431;223
678871;1;8;0;1211;-2510;2913;-1732;-155;389;210
678881;1;8;0;1211;-2576;2969;-1660;-193;303;171
678891;1;8;0;1211;-2541;3118;-1559;-177;241;160
678901;1;8;0;1211;-2482;3184;-1496;-131;259;157
678911;1;8;0;1211;-2456;3190;-1483;-114;313;135
678921;1;8;0;1211;-2422;3238;-1629;-136;349;114
678931;1;8;0;1211;-2466;3217;-1845;-173;361;110
678941;1;8;0;1211;-2645;3139;-1949;-230;279;181
678951;1;8;0;1211;-2830;3094;-1949;-253;137;259
678961;1;8;0;1211;-3007;3201;-1846;-239;-48;229
678971;1;8;0;1211;-3045;3395;-1723;-221;-235;150
678981;1;8;0;1211;-3025;3566;-1630;-146;-329;145
678991;1;8;0;1211;-2950;3641;-1600;-39;-295;183
679001;1;8;0;1211;-2766;3617;-1608;23;-146;175
679011;1;8;0;1211;-2598;3525;-1738;133;62;9
679021;1;8;0;1211;-2582;3299;-1790;165;176;-266
679031;1;8;0;1211;-2751;3100;-1837;108;89;-580
679041;1;8;0;1211;-2986;3018;-1884;9;-271;-829
679051;1;8;0;1211;-3192;3148;-1928;-152;-767;-908
679061;1;8;0;1211;-3239;3309;-1827;-320;-1195;-789
679071;1;8;0;1211;-3197;3436;-1774;-412;-1386;-583
679081;1;8;0;1211;-3097;3540;-1745;-395;-1338;-352
679091;1;8;0;1212;-2967;3605;-1725;-259;-1108;-213
679101;1;8;0;1212;-2829;3580;-1723;-61;-780;-125
679111;1;8;0;1212;-2686;3430;-1703;79;-478;-58
679121;1;8;0;1212;-2567;3190;-1731;160;-320;-18
679131;1;8;0;1212;-2551;2979;-1717;183;-346;-81
679141;1;8;0;1212;-2610;2854;-1658;154;-598;-235
679151;1;8;0;1212;-2658;2932;-1655;126;-966;-344
679161;1;8;0;1212;-2616;3080;-1644;145;-1262;-372
679171;1;8;0;1212;-2559;3199;-1604;227;-1364;-261
679181;1;8;0;1212;-2508;3184;-1615;326;-1279;-92
679191;1;8;0;1212;-2488;3123;-1580;502;-1140;78
679201;1;8;0;1212;-2430;3119;-1552;685;-1060;206
679211;1;8;0;1212;-2342;3056;-1582;896;-1003;238
679221;1;8;0;1212;-2290;2966;-1572;1065;-900;210
679231;1;8;0;1212;-2310;2937;-1525;1148;-876;174
679241;1;8;0;1212;-2393;2922;-1547;1086;-930;198
679251;1;8;0;1212;-2420;2957;-1582;915;-1032;297
679261;1;8;0;1212;-2440;2931;-1653;748;-1123;456
679271;1;8;0;1212;-2491;2927;-1671;661;-1160;599
679281;1;8;0;1212;-2543;2964;-1651;637;-1161;647
679291;1;8;0;1212;-2534;3052;-1645;674;-1128;670
679301;1;8;0;1212;-2479;3096;-1651;716;-1038;686
679311;1;8;0;1212;-2465;3147;-1665;731;-965;770
679321;1;8;0;1212;-2486;3125;-1644;710;-983;914
679331;1;8;0;1212;-2509;3121;-1615;617;-1094;1080
679341;1;8;0;1212;-2501;3108;-1634;501;-1207;1231
679351;1;8;0;1212;-2475;3081;-1635;429;-1292;1282
679361;1;8;0;1212;-2479;3137;-1656;424;-1294;1246
679371;1;8;0;1212;-2472;3224;-1700;530;-1246;1190
679381;1;8;0;1212;-2442;3296;-1704;713;-1101;1144
679391;1;8;0;1212;-2366;3306;-1685;894;-889;1163
679401;1;8;0;1212;-2357;3287;-1619;1012;-721;1293
679411;1;8;0;1212;-2306;3200;-1639;1008;-662;1445
679421;1;8;0;1212;-2221;3088;-1683;909;-730;1585
679431;1;8;0;1212;-2213;2933;-1750;767;-837;1696
679441;1;8;0;1212;-2162;2817;-1814;651;-935;1678
679451;1;8;0;1212;-2199;2837;-1840;558;-1051;1678
679461;1;8;0;1212;-2232;2943;-1809;483;-1103;1733
679471;1;8;0;1212;-2268;3113;-1713;439;-1077;1848
679481;1;8;0;1212;-2202;3255;-1590;488;-1064;1949
679491;1;8;0;1212;-2104;3374;-1482;608;-1012;2017
679501;1;8;0;1212;-2023;3426;-1399;786;-955;1982
679511;1;8;0;1212;-1919;3370;-1399;968;-884;1849
679521;1;8;0;1212;-1894;3288;-1500;1108;-788;1724
679531;1;8;0;1212;-1956;3079;-1589;1110;-696;1625
679541;1;8;0;1212;-2079;2880;-1683;1026;-687;1546
679551;1;8;0;1212;-2225;2820;-1736;853;-908;1495
679561;1;8;0;1212;-2281;2881;-1747;612;-1084;1514
679571;1;8;0;1212;-2237;3041;-1694;435;-1141;1585
679581;1;8;0;1212;-2118;3243;-1569;393;-1084;1683
679591;1;8;0;1213;-1992;3337;-1497;506;-909;1852
679601;1;8;0;1213;-1809;3374;-1440;689;-666;1985
679611;1;8;0;1213;-1728;3273;-1405;812;-395;2005
679621;1;8;0;1213;-1626;3030;-1501;847;-199;1874
679631;1;8;0;1213;-1703;2838;-1593;810;-193;1646
679641;1;8;0;1213;-1773;2737;-1675;697;-326;1311
679651;1;8;0;1213;-1870;2721;-1754;549;-467;991
679661;1;8;0;1213;-2011;2775;-1736;394;-505;802
679671;1;8;0;1213;-2103;3001;-1683;250;-431;796
679681;1;8;0;1213;-2043;3197;-1601;114;-272;909
679691;1;8;0;1213;-1953;3300;-1561;77;-108;1137
679701;1;8;0;1213;-1887;3334;-1424;95;-30;1389
679711;1;8;0;1213;-1764;3244;-1353;159;21;1620
679721;1;8;0;1213;-1626;3128;-1402;229;108;1699
679731;1;8;0;1213;-1548;2867;-1492;308;197;1648
679741;1;8;0;1213;-1537;2567;-1551;409;230;1422
679751;1;8;0;1213;-1550;2437;-1615;480;129;1070
679761;1;8;0;1213;-1635;2446;-1721;485;-69;714
679771;1;8;0;1213;-1791;2609;-1800;418;-360;498
679781;1;8;0;1213;-1903;2887;-1789;250;-595;505
679791;1;8;0;1213;-1952;3056;-1714;113;-661;640
679801;1;8;0;1213;-1869;3213;-1577;29;-606;867
679811;1;8;0;1213;-1743;3281;-1471;52;-432;1168
679821;1;8;0;1213;-1568;3185;-1395;183;-185;1557
679831;1;8;0;1213;-1446;3034;-1384;313;49;1829
679841;1;8;0;1213;-1304;2742;-1369;402;127;1936
679851;1;8;0;1213;-1275;2489;-1395;481;172;1701
679861;1;8;0;1213;-1235;2374;-1402;540;11;1271
679871;1;8;0;1213;-1266;2427;-1432;521;-254;874
679881;1;8;0;1213;-1367;2639;-1482;429;-573;671
679891;1;8;0;1213;-1438;2935;-1502;262;-733;866
679901;1;8;0;1213;-1476;3059;-1521;78;-633;1269
679911;1;8;0;1213;-1532;3103;-1512;-86;-390;1718
679921;1;8;0;1213;-1546;3041;-1465;-144;-228;1984
679931;1;8;0;1213;-1428;2933;-1461;-128;-64;2045
679941;1;8;0;1213;-1351;2784;-1465;-73;39;1918
679951;1;8;0;1213;-1250;2642;-1496;86;187;1754
679961;1;8;0;1213;-1267;2540;-1473;239;201;1651
679971;1;8;0;1213;-1302;2643;-1455;332;139;1577
679981;1;8;0;1213;-1359;2769;-1446;300;10;1605
679991;1;8;0;1213;-1398;2947;-1437;172;-88;1723
680001;1;8;0;1213;-1444;3095;-1415;5;-110;1907
680011;1;8;0;1213;-1402;3153;-1389;-72;-118;2044
680021;1;8;0;1213;-1334;3119;-1349;-27;-50;2089
680031;1;8;0;1213;-1331;3063;-1357;174;-3;2042
680041;1;8;0;1213;-1287;2994;-1405;382;64;1913
680051;1;8;0;1213;-1307;2956;-1495;566;58;1726
680061;1;8;0;1213;-1338;2983;-1505;684;-24;1482
680071;1;8;0;1213;-1372;3072;-1529;727;-144;1289
680081;1;8;0;1213;-1400;3174;-1568;724;-211;1204
680091;1;8;0;1214;-1391;3258;-1623;724;-181;1190
680101;1;8;0;1214;-1414;3264;-1649;708;-62;1247
680111;1;8;0;1214;-1397;3215;-1714;693;61;1266
680121;1;8;0;1214;-1412;3118;-1729;669;142;1191
680131;1;8;0;1214;-1459;3047;-1739;657;148;1043
680141;1;8;0;1214;-1478;3057;-1788;609;140;900
680151;1;8;0;1214;-1538;3104;-1853;520;137;812
680161;1;8;0;1214;-1502;3221;-1897;448;239;777
680171;1;8;0;1214;-1421;3293;-1860;422;501;770
680181;1;8;0;1214;-1325;3276;-1785;477;779;729
680191;1;8;0;1214;-1245;3224;-1724;595;1014;635
680201;1;8;0;1214;-1177;3230;-1660;633;1140;493
680211;1;8;0;1214;-1109;3144;-1637;604;1137;404
680221;1;8;0;1214;-1150;3148;-1702;476;993;396
680231;1;8;0;1214;-1238;3198;-1746;276;778;454
680241;1;8;0;1214;-1268;3208;-1731;69;554;457
680251;1;8;0;1214;-1296;3212;-1623;-22;365;360
680261;1;8;0;1214;-1268;3275;-1546;-8;210;217
680271;1;8;0;1214;-1218;3297;-1542;103;148;151
680281;1;8;0;1214;-1164;3304;-1584;245;180;179
680291;1;8;0;1214;-1211;3320;-1654;293;151;284
680301;1;8;0;1214;-1254;3343;-1678;261;38;393
680311;1;8;0;1214;-1273;3350;-1697;166;-113;473
680321;1;8;0;1214;-1259;3371;-1681;46;-260;465
680331;1;8;0;1214;-1237;3354;-1695;-8;-346;430
680341;1;8;0;1214;-1183;3326;-1715;30;-302;390
680351;1;8;0;1214;-1199;3258;-1735;77;-261;343
680361;1;8;0;1214;-1258;3260;-1738;114;-305;258
680371;1;8;0;1214;-1308;3281;-1736;83;-422;195
680381;1;8;0;1214;-1377;3300;-1765;-18;-598;158
680391;1;8;0;1214;-1403;3342;-1798;-133;-689;160
680401;1;8;0;1214;-1413;3353;-1850;-268;-702;187
680411;1;8;0;1214;-1353;3302;-1856;-297;-602;207
680421;1;8;0;1214;-1279;3281;-1854;-235;-456;185
680431;1;8;0;1214;-1217;3317;-1931;-148;-266;163
680441;1;8;0;1214;-1203;3316;-2033;-135;-109;131
680451;1;8;0;1214;-1179;3287;-2092;-164;26;40
680461;1;8;0;1214;-1163;3261;-2096;-198;128;-121
680471;1;8;0;1214;-1153;3317;-2066;-187;222;-296
680481;1;8;0;1214;-1188;3428;-1974;-145;275;-417
680491;1;8;0;1214;-1227;3480;-1913;-134;276;-407
680501;1;8;0;1214;-1258;3492;-1775;-135;244;-320
680511;1;8;0;1214;-1277;3462;-1672;-187;167;-235
680521;1;8;0;1214;-1291;3409;-1577;-263;10;-194
680531;1;8;0;1214;-1283;3378;-1542;-345;-187;-245
680541;1;8;0;1214;-1298;3413;-1485;-417;-399;-274
680551;1;8;0;1214;-1274;3474;-1531;-470;-556;-253
680561;1;8;0;1214;-1249;3475;-1649;-481;-558;-172
680571;1;8;0;1214;-1275;3456;-1746;-448;-492;-84
680581;1;8;0;1214;-1312;3415;-1833;-400;-413;-69
680591;1;8;0;1215;-1323;3375;-1802;-325;-374;-136
680601;1;8;0;1215;-1325;3387;-1777;-242;-397;-234
680611;1;8;0;1215;-1340;3408;-1770;-217;-433;-251
680621;1;8;0;1215;-1312;3384;-1712;-189;-422;-229
680631;1;8;0;1215;-1347;3336;-1662;-227;-431;-206
680641;1;8;0;1215;-1359;3296;-1598;-286;-473;-211
680651;1;8;0;1215;-1381;3226;-1501;-361;-588;-319
680661;1;8;0;1215;-1412;3193;-1440;-443;-755;-502
680671;1;8;0;1215;-1363;3218;-1516;-533;-788;-612
680681;1;8;0;1215;-1278;3120;-1681;-570;-666;-644
680691;1;8;0;1215;-1298;3164;-1826;-541;-502;-559
680701;1;8;0;1215;-1280;3311;-1949;-450;-378;-346
680711;1;8;0;1215;-1261;3398;-1908;-322;-334;-119
680721;1;8;0;1215;-1218;3411;-1819;-160;-360;26
680731;1;8;0;1215;-1209;3305;-1652;-7;-396;45
680741;1;8;0;1215;-1236;3111;-1394;122;-478;-178
680751;1;8;0;1215;-1206;2923;-1264;189;-619;-418
680761;1;8;0;1215;-1099;2756;-1408;172;-751;-607
680771;1;8;0;1215;-1002;2599;-1647;117;-744;-731
680781;1;8;0;1215;-1021;2659;-1835;115;-762;-619
680791;1;8;0;1215;-1060;2838;-1947;119;-686;-270
680801;1;8;0;1215;-956;3022;-2037;101;-336;167
680811;1;8;0;1215;-943;2978;-1956;140;92;430
680821;1;8;0;1215;-1068;2958;-1790;171;251;352
680831;1;8;0;1215;-1136;3048;-1719;87;122;-27
680841;1;8;0;1215;-1156;3084;-1736;-115;-128;-438
680851;1;8;0;1215;-1245;3176;-1706;-350;-401;-608
680861;1;8;0;1215;-1317;3160;-1684;-547;-431;-525
680871;1;8;0;1215;-1275;3106;-1736;-623;-255;-377
680881;1;8;0;1215;-1246;3111;-1842;-575;23;-279
680891;1;8;0;1215;-1309;3129;-1926;-433;236;-322
680901;1;8;0;1215;-1323;3092;-1912;-284;392;-476
680911;1;8;0;1215;-1310;2973;-1821;-137;564;-677
680921;1;8;0;1215;-1274;2852;-1655;-23;721;-855
680931;1;8;0;1215;-1228;2849;-1485;22;693;-996
680941;1;8;0;1215;-1140;2907;-1348;-67;518;-1033
680951;1;8;0;1215;-1031;2982;-1262;-274;333;-898
680961;1;8;0;1215;-886;2965;-1224;-510;302;-634
680971;1;8;0;1215;-792;2883;-1244;-648;390;-479
680981;1;8;0;1215;-838;2774;-1331;-644;365;-616
680991;1;8;0;1215;-944;2702;-1514;-564;285;-960
681001;1;8;0;1215;-1098;2696;-1728;-444;198;-1397
681011;1;8;0;1215;-1283;2887;-1959;-339;104;-1641
681021;1;8;0;1215;-1415;3281;-2091;-281;177;-1554
681031;1;8;0;1215;-1524;3520;-1998;-290;373;-1212
681041;1;8;0;1215;-1498;3618;-1793;-265;646;-879
681051;1;8;0;1215;-1403;3573;-1608;-223;946;-742
681061;1;8;0;1215;-1239;3327;-1509;-131;1247;-826
681071;1;8;0;1215;-1249;3026;-1507;-32;1365;-1067
681081;1;8;0;1215;-1359;3014;-1693;-11;1262;-1265
681091;1;8;0;1216;-1328;3085;-1927;-170;1188;-1329
681101;1;8;0;1216;-1328;3148;-2080;-381;1213;-1352
681111;1;8;0;1216;-1393;3266;-2141;-602;1347;-1422
681121;1;8;0;1216;-1438;3255;-2065;-702;1551;-1631
681131;1;8;0;1216;-1377;3159;-1921;-675;1707;-1988
681141;1;8;0;1216;-1306;3035;-1781;-539;1812;-2320
681151;1;8;0;1216;-1349;3020;-1642;-407;1767;-2480
681161;1;8;0;1216;-1428;3195;-1553;-409;1546;-2435
681171;1;8;0;1216;-1501;3456;-1589;-590;1234;-2247
681181;1;8;0;1216;-1519;3696;-1666;-948;947;-1898
681191;1;8;0;1216;-1500;3762;-1790;-1314;952;-1435
681201;1;8;0;1216;-1393;3500;-1829;-1375;1260;-1214
681211;1;8;0;1216;-1311;3049;-1845;-1068;1646;-1387
681221;1;8;0;1216;-1312;2653;-1864;-564;1875;-1856
681231;1;8;0;1216;-1400;2472;-1892;-28;1831;-2501
681241;1;8;0;1216;-1607;2566;-1931;169;1546;-2948
681251;1;8;0;1216;-1830;3058;-1980;-67;1052;-2996
681261;1;8;0;1216;-1949;3660;-2055;-593;620;-2648
681271;1;8;0;1216;-1912;4122;-2008;-1114;405;-2012
681281;1;8;0;1216;-1798;4314;-1924;-1380;584;-1328
681291;1;8;0;1216;-1551;4123;-1702;-1186;1105;-692
681301;1;8;0;1216;-1379;3590;-1513;-612;1526;-425
681311;1;8;0;1216;-1337;2981;-1395;46;1722;-451
681321;1;8;0;1216;-1375;2453;-1524;439;1688;-693
681331;1;8;0;1216;-1497;2162;-1623;418;1371;-924
681341;1;8;0;1216;-1640;2116;-1751;79;741;-1168
681351;1;8;0;1216;-1726;2372;-1946;-482;168;-1312
681361;1;8;0;1216;-1737;2687;-2138;-1074;-160;-1427
681371;1;8;0;1216;-1710;2903;-2348;-1449;-29;-1463
681381;1;8;0;1216;-1703;2917;-2503;-1480;454;-1539
681391;1;8;0;1216;-1762;2805;-2503;-1137;1039;-1685
681401;1;8;0;1216;-1875;2760;-2327;-585;1473;-1873
681411;1;8;0;1216;-2024;2910;-2122;-34;1536;-2048
681421;1;8;0;1216;-2115;3334;-1853;295;1287;-1916
681431;1;8;0;1216;-2064;3857;-1686;235;799;-1383
681441;1;8;0;1216;-1897;4269;-1633;-128;492;-368
681451;1;8;0;1216;-1643;4327;-1592;-577;588;822
681461;1;8;0;1216;-1406;3905;-1562;-761;1005;1674
681471;1;8;0;1216;-1304;3261;-1568;-616;1424;1891
681481;1;8;0;1216;-1215;2671;-1730;-264;1546;1431
681491;1;8;0;1216;-1213;2287;-1968;329;1667;686
681501;1;8;0;1216;-1346;2021;-2301;440;1291;-29
681511;1;8;0;1216;-1643;1982;-2408;405;778;-640
681521;1;8;0;1216;-1845;2277;-2370;147;296;-976
681531;1;8;0;1216;-1901;2684;-2242;-200;32;-1070
681541;1;8;0;1216;-1868;3042;-2092;-481;43;-993
681551;1;8;0;1216;-1931;3403;-1968;-595;130;-807
681561;1;8;0;1216;-1898;3749;-1929;-603;145;-575
681571;1;8;0;1216;-1764;3816;-1956;-458;348;-215
681581;1;8;0;1216;-1663;3629;-1929;-137;681;191
681591;1;8;0;1217;-1568;3383;-1900;248;957;491
681601;1;8;0;1217;-1511;3122;-1855;478;999;627
681611;1;8;0;1217;-1493;2994;-1916;490;832;662
681621;1;8;0;1217;-1435;2922;-1995;349;570;662
681631;1;8;0;1217;-1414;2914;-2151;139;410;623
681641;1;8;0;1217;-1456;2966;-2322;3;429;520
681651;1;8;0;1217;-1491;3023;-2426;53;633;319
681661;1;8;0;1217;-1519;3035;-2532;314;981;47
681671;1;8;0;1217;-1538;2984;-2420;659;1433;-158
681681;1;8;0;1217;-1516;2966;-2262;962;1809;-285
681691;1;8;0;1217;-1425;2959;-2123;1073;1974;-340
681701;1;8;0;1217;-1404;2981;-1993;1026;1903;-326
681711;1;8;0;1217;-1504;3074;-1840;839;1515;-253
681721;1;8;0;1217;-1612;3327;-1806;642;909;-203
681731;1;8;0;1217;-1658;3609;-1920;431;431;-64
681741;1;8;0;1217;-1782;3725;-2100;255;342;240
681751;1;8;0;1217;-1882;3713;-2332;116;559;594
681761;1;8;0;1217;-1821;3540;-2471;84;997;812
681771;1;8;0;1217;-1722;3279;-2442;205;1391;699
681781;1;8;0;1217;-1567;3141;-2331;404;1608;326
681791;1;8;0;1217;-1385;3083;-2213;564;1639;-174
681801;1;8;0;1217;-1336;3203;-2147;593;1603;-511
681811;1;8;0;1217;-1442;3393;-2087;470;1462;-571
681821;1;8;0;1217;-1539;3561;-2181;188;1349;-455
681831;1;8;0;1217;-1537;3547;-2318;-54;1450;-189
681841;1;8;0;1217;-1481;3410;-2450;-137;1696;44
681851;1;8;0;1217;-1446;3221;-2492;-62;1916;106
681861;1;8;0;1217;-1425;3039;-2429;61;1980;-5
681871;1;8;0;1217;-1383;2937;-2302;153;1864;-243
681881;1;8;0;1217;-1373;3003;-2156;191;1555;-476
681891;1;8;0;1217;-1428;3190;-2087;110;1164;-540
681901;1;8;0;1217;-1474;3437;-2101;-44;860;-403
681911;1;8;0;1217;-1485;3639;-2222;-286;771;37
681921;1;8;0;1217;-1481;3615;-2295;-415;958;430
681931;1;8;0;1217;-1474;3551;-2470;-372;1261;745
681941;1;8;0;1217;-1447;3409;-2569;-180;1437;776
681951;1;8;0;1217;-1444;3320;-2596;134;1488;582
681961;1;8;0;1217;-1401;3304;-2596;500;1383;318
681971;1;8;0;1217;-1316;3253;-2525;692;1272;181
681981;1;8;0;1217;-1250;3219;-2445;819;1259;181
681991;1;8;0;1217;-1231;3224;-2399;775;1226;273
682001;1;8;0;1217;-1254;3158;-2456;617;1172;351
682011;1;8;0;1217;-1327;3137;-2582;401;1030;370
682021;1;8;0;1217;-1367;3151;-2738;233;878;353
682031;1;8;0;1217;-1384;3171;-2849;153;809;299
682041;1;8;0;1217;-1388;3234;-2802;195;825;260
682051;1;8;0;1217;-1356;3291;-2662;298;931;242
682061;1;8;0;1217;-1257;3307;-2494;412;1054;228
682071;1;8;0;1217;-1176;3285;-2389;474;1100;207
682081;1;8;0;1217;-1189;3261;-2377;452;998;186
682091;1;8;0;1218;-1208;3278;-2425;336;852;204
682101;1;8;0;1218;-1243;3207;-2478;205;794;237
682111;1;8;0;1218;-1275;3181;-2514;152;766;238
682121;1;8;0;1218;-1316;3224;-2562;182;720;199
682131;1;8;0;1218;-1321;3260;-2604;175;670;150
682141;1;8;0;1218;-1267;3257;-2630;161;666;126
682151;1;8;0;1218;-1172;3153;-2596;135;760;118
682161;1;8;0;1218;-1079;3043;-2514;199;833;51
682171;1;8;0;1218;-1015;3023;-2422;222;725;-61
682181;1;8;0;1218;-957;3097;-2454;229;605;-154
682191;1;8;0;1218;-960;3177;-2585;161;555;-221
682201;1;8;0;1218;-1112;3239;-2712;167;581;-268
682211;1;8;0;1218;-1299;3307;-2830;240;571;-315
682221;1;8;0;1218;-1432;3335;-2928;421;603;-432
682231;1;8;0;1218;-1465;3350;-3019;656;701;-508
682241;1;8;0;1218;-1446;3315;-2950;802;878;-476
682251;1;8;0;1218;-1376;3293;-2805;817;992;-409
682261;1;8;0;1218;-1226;3332;-2649;628;888;-354
682271;1;8;0;1218;-1125;3358;-2559;376;594;-283
682281;1;8;0;1218;-1110;3389;-2579;173;261;-226
682291;1;8;0;1218;-1111;3383;-2658;26;52;-207
682301;1;8;0;1218;-1180;3311;-2755;2;-21;-219
682311;1;8;0;1218;-1294;3169;-2864;39;-32;-215
682321;1;8;0;1218;-1359;3041;-2888;99;-1;-189
682331;1;8;0;1218;-1341;2953;-2859;127;18;-141
682341;1;8;0;1218;-1246;2892;-2772;112;29;-83
682351;1;8;0;1218;-1129;2877;-2666;75;-13;-31
682361;1;8;0;1218;-924;2881;-2673;35;-39;8
682371;1;8;0;1218;-774;2781;-2725;3;-21;-36
682381;1;8;0;1218;-793;2686;-2791;-28;-50;-233
682391;1;8;0;1218;-886;2716;-2855;-114;-152;-486
682401;1;8;0;1218;-1014;2858;-2889;-242;-313;-674
682411;1;8;0;1218;-1140;3086;-2822;-382;-522;-681
682421;1;8;0;1218;-1159;3268;-2676;-458;-641;-520
682431;1;8;0;1218;-1135;3367;-2575;-460;-645;-251
682441;1;8;0;1218;-1150;3378;-2713;-405;-644;39
682451;1;8;0;1218;-1265;3323;-2957;-392;-817;247
682461;1;8;0;1218;-1348;3264;-3264;-515;-1064;240
682471;1;8;0;1218;-1571;3163;-3534;-725;-1296;85
682481;1;8;0;1218;-1884;3144;-3678;-911;-1633;-213
682491;1;8;0;1218;-1929;3273;-3620;-930;-1700;-256
682501;1;8;0;1218;-1876;3481;-3391;-880;-1643;-115
682511;1;8;0;1218;-1707;3636;-3130;-773;-1364;237
682521;1;8;0;1218;-1481;3710;-2735;-634;-1132;640
682531;1;8;0;1218;-1269;3622;-2446;-573;-1089;913
682541;1;8;0;1218;-1160;3457;-2327;-643;-1219;988
682551;1;8;0;1218;-1187;3395;-2326;-774;-1573;964
682561;1;8;0;1218;-1166;3337;-2537;-931;-1980;927
682571;1;8;0;1218;-1230;3195;-2839;-1081;-2140;887
682581;1;8;0;1218;-1405;2894;-2997;-1179;-2043;796
682591;1;8;0;1219;-1578;2686;-3083;-1203;-1883;520
682601;1;8;0;1219;-1650;2699;-3023;-1098;-1867;299
682611;1;8;0;1219;-1554;2948;-2778;-909;-1939;263
682621;1;8;0;1219;-1256;3213;-2474;-704;-1768;394
682631;1;8;0;1219;-1061;3348;-2205;-656;-1532;489
682641;1;8;0;1219;-886;3402;-1890;-539;-1186;312
682651;1;8;0;1219;-820;3342;-1907;-330;-964;66
682661;1;8;0;1219;-936;3255;-2076;-147;-999;-63
682671;1;8;0;1219;-1208;3182;-2371;-59;-1220;-87
682681;1;8;0;1219;-1535;3186;-2573;-128;-1487;-2
682691;1;8;0;1219;-1805;3300;-2663;-324;-1720;160
682701;1;8;0;1219;-1833;3518;-2646;-505;-1840;319
682711;1;8;0;1219;-1703;3666;-2571;-635;-1752;440
682721;1;8;0;1219;-1572;3764;-2483;-672;-1527;492
682731;1;8;0;1219;-1347;3769;-2439;-626;-1221;453
682741;1;8;0;1219;-1138;3685;-2457;-480;-932;336
682751;1;8;0;1219;-1149;3519;-2540;-338;-741;101
682761;1;8;0;1219;-1355;3433;-2589;-271;-799;-185
682771;1;8;0;1219;-1553;3449;-2587;-325;-1021;-412
682781;1;8;0;1219;-1732;3545;-2500;-451;-1271;-507
682791;1;8;0;1219;-1807;3749;-2402;-602;-1438;-433
682801;1;8;0;1219;-1737;3905;-2289;-726;-1417;-179
682811;1;8;0;1219;-1545;3966;-2126;-784;-1192;94
682821;1;8;0;1219;-1328;3919;-2015;-711;-915;296
682831;1;8;0;1219;-1186;3815;-1995;-572;-750;378
682841;1;8;0;1219;-1097;3656;-2144;-428;-718;418
682851;1;8;0;1219;-1148;3392;-2333;-377;-888;303
682861;1;8;0;1219;-1301;3235;-2488;-413;-1171;85
682871;1;8;0;1219;-1514;3213;-2573;-529;-1552;-204
682881;1;8;0;1219;-1627;3376;-2565;-735;-1821;-352
682891;1;8;0;1219;-1612;3569;-2450;-1009;-1831;-165
682901;1;8;0;1219;-1477;3615;-2303;-1216;-1537;273
682911;1;8;0;1219;-1304;3565;-2148;-1314;-1153;736
682921;1;8;0;1219;-1132;3436;-2146;-1245;-826;1043
682931;1;8;0;1219;-1120;3194;-2197;-977;-665;1029
682941;1;8;0;1219;-1249;3068;-2240;-599;-834;645
682951;1;8;0;1219;-1380;3139;-2275;-203;-1188;135
682961;1;8;0;1219;-1482;3376;-2387;-15;-1492;-145
682971;1;8;0;1219;-1601;3534;-2430;-16;-1514;29
682981;1;8;0;1219;-1693;3588;-2363;-174;-1431;425
682991;1;8;0;1219;-1681;3573;-2227;-377;-1330;849
683001;1;8;0;1219;-1541;3453;-2150;-504;-1255;1100
683011;1;8;0;1219;-1408;3303;-2102;-540;-1215;1135
683021;1;8;0;1219;-1360;3250;-2140;-395;-1186;961
683031;1;8;0;1219;-1331;3272;-2187;-272;-1228;712
683041;1;8;0;1219;-1335;3328;-2234;-155;-1223;517
683051;1;8;0;1219;-1367;3405;-2216;-96;-1173;434
683061;1;8;0;1219;-1382;3499;-2150;-116;-1082;463
683071;1;8;0;1219;-1393;3568;-2108;-172;-971;575
683081;1;8;0;1219;-1378;3494;-2107;-225;-778;750
683091;1;8;0;1220;-1373;3286;-2093;-257;-589;839
683101;1;8;0;1220;-1347;3111;-2110;-188;-485;789
683111;1;8;0;1220;-1308;3018;-2105;-69;-491;625
683121;1;8;0;1220;-1332;3039;-2044;75;-657;396
683131;1;8;0;1220;-1305;3210;-1944;172;-886;198
683141;1;8;0;1220;-1276;3401;-1863;166;-1063;111
683151;1;8;0;1220;-1269;3571;-1791;51;-1151;165
683161;1;8;0;1220;-1293;3563;-1733;-88;-1159;263
683171;1;8;0;1220;-1306;3391;-1730;-192;-1085;354
683181;1;8;0;1220;-1309;3136;-1786;-208;-951;370
683191;1;8;0;1220;-1306;2892;-1851;-142;-795;279
683201;1;8;0;1220;-1258;2666;-1943;-38;-625;108
683211;1;8;0;1220;-1262;2530;-2007;54;-456;-78
683221;1;8;0;1220;-1264;2583;-2087;90;-352;-241
683231;1;8;0;1220;-1289;2879;-2159;2;-401;-341
683241;1;8;0;1220;-1262;3216;-2173;-179;-480;-312
683251;1;8;0;1220;-1241;3383;-2066;-292;-495;-155
683261;1;8;0;1220;-1253;3406;-1874;-288;-380;58
683271;1;8;0;1220;-1301;3327;-1774;-266;-122;246
683281;1;8;0;1220;-1298;3032;-1647;-243;126;345
683291;1;8;0;1220;-1328;2756;-1600;-243;217;226
683301;1;8;0;1220;-1361;2682;-1745;-269;65;-11
683311;1;8;0;1220;-1343;2722;-1936;-295;-108;-256
683321;1;8;0;1220;-1385;2997;-2125;-269;-395;-597
683331;1;8;0;1220;-1448;3417;-2171;-181;-683;-786
683341;1;8;0;1220;-1489;3718;-2170;-17;-750;-701
683351;1;8;0;1220;-1489;3880;-2149;206;-545;-340
683361;1;8;0;1220;-1512;3827;-2103;515;-86;208
683371;1;8;0;1220;-1483;3545;-2111;703;401;621
683381;1;8;0;1220;-1426;3263;-2050;794;686;740
683391;1;8;0;1220;-1283;2920;-1887;836;768;615
683401;1;8;0;1220;-1162;2765;-1826;802;478;305
683411;1;8;0;1220;-1167;2772;-1832;628;11;57
683421;1;8;0;1220;-1160;2902;-1946;236;-464;47
683431;1;8;0;1220;-1138;2952;-2092;-182;-540;237
683441;1;8;0;1220;-1110;2931;-2260;-608;-338;630
683451;1;8;0;1220;-1065;2915;-2257;-841;-55;977
683461;1;8;0;1220;-1076;2887;-2181;-843;219;1064
683471;1;8;0;1220;-1113;2934;-2060;-687;288;970
683481;1;8;0;1220;-1080;2973;-1945;-473;296;807
683491;1;8;0;1220;-1099;2948;-1810;-250;355;671
683501;1;8;0;1220;-1073;2901;-1721;-166;473;605
683511;1;8;0;1220;-960;2838;-1662;-216;670;653
683521;1;8;0;1220;-803;2641;-1639;-332;841;825
683531;1;8;0;1220;-717;2488;-1615;-388;913;1060
683541;1;8;0;1220;-657;2406;-1618;-446;933;1239
683551;1;8;0;1220;-625;2358;-1633;-453;888;1258
683561;1;8;0;1220;-653;2321;-1588;-391;704;1077
683571;1;8;0;1220;-742;2508;-1572;-302;368;792
683581;1;8;0;1220;-810;2696;-1572;-210;43;558
683591;1;8;0;1221;-868;2810;-1626;-164;-156;369
683601;1;8;0;1221;-964;2823;-1677;-124;-163;292
683611;1;8;0;1221;-1050;2822;-1680;-103;-22;317
683621;1;8;0;1221;-1064;2768;-1707;-80;170;400
683631;1;8;0;1221;-1075;2798;-1720;-17;358;474
683641;1;8;0;1221;-1057;2844;-1726;61;444;527
683651;1;8;0;1221;-1073;2917;-1717;146;468;574
683661;1;8;0;1221;-1046;3006;-1751;233;438;615
683671;1;8;0;1221;-1034;3117;-1756;327;381;611
683681;1;8;0;1221;-1052;3133;-1750;387;353;583
683691;1;8;0;1221;-1113;3131;-1725;414;272;528
683701;1;8;0;1221;-1181;3132;-1757;403;192;543
683711;1;8;0;1221;-1184;3108;-1770;373;128;615
683721;1;8;0;1221;-1168;3067;-1801;348;125;743
683731;1;8;0;1221;-1098;3093;-1809;355;182;887
683741;1;8;0;1221;-973;3108;-1865;389;312;1008
683751;1;8;0;1221;-913;3119;-1906;451;423;1047
683761;1;8;0;1221;-919;3098;-1965;497;401;964
683771;1;8;0;1221;-993;3119;-1991;514;292;766
683781;1;8;0;1221;-1044;3156;-1977;484;133;552
683791;1;8;0;1221;-1104;3215;-1954;455;10;405
683801;1;8;0;1221;-1155;3285;-1973;381;-11;392
683811;1;8;0;1221;-1158;3347;-1963;290;26;493
683821;1;8;0;1221;-1073;3405;-1996;258;112;663
683831;1;8;0;1221;-984;3407;-2063;283;190;824
683841;1;8;0;1221;-932;3374;-2104;352;206;910
683851;1;8;0;1221;-880;3331;-2078;409;170;915
683861;1;8;0;1221;-844;3232;-2073;438;90;826
683871;1;8;0;1221;-808;3143;-2044;414;-14;642
683881;1;8;0;1221;-832;3099;-2059;380;-117;401
683891;1;8;0;1221;-834;3079;-2105;330;-171;206
683901;1;8;0;1221;-823;3069;-2064;194;-303;113
683911;1;8;0;1221;-825;3071;-2031;157;-344;91
683921;1;8;0;1221;-797;3086;-2042;124;-311;98
683931;1;8;0;1221;-785;3087;-2024;102;-291;83
683941;1;8;0;1221;-828;3133;-2066;64;-347;50
683951;1;8;0;1221;-860;3105;-2071;12;-453;11
683961;1;8;0;1221;-919;3171;-2094;-57;-616;-14
683971;1;8;0;1221;-1000;3217;-2135;-155;-751;53
683981;1;8;0;1221;-1017;3270;-2192;-245;-796;151
683991;1;8;0;1221;-972;3327;-2215;-308;-699;218
684001;1;8;0;1221;-944;3314;-2212;-298;-529;207
684011;1;8;0;1221;-975;3252;-2103;-203;-391;112
684021;1;8;0;1221;-1017;3261;-2001;-104;-403;-24
684031;1;8;0;1221;-1073;3273;-1927;-34;-475;-139
684041;1;8;0;1221;-1174;3298;-1914;-3;-590;-143
684051;1;8;0;1221;-1237;3327;-1956;-61;-671;-69
684061;1;8;0;1221;-1264;3349;-2011;-168;-708;88
684071;1;8;0;1221;-1238;3388;-2126;-257;-692;261
684081;1;8;0;1221;-1146;3448;-2229;-289;-560;455
684091;1;8;0;1222;-1030;3443;-2271;-176;-370;542
684101;1;8;0;1222;-918;3433;-2323;16;-208;499
684111;1;8;0;1222;-818;3346;-2336;248;-69;328
684121;1;8;0;1222;-792;3305;-2312;442;52;172
684131;1;8;0;1222;-823;3258;-2246;506;62;107
684141;1;8;0;1222;-897;3262;-2188;479;-34;170
684151;1;8;0;1222;-936;3273;-2170;356;-146;286
684161;1;8;0;1222;-965;3260;-2159;198;-286;430
684171;1;8;0;1222;-970;3249;-2173;91;-400;531
684181;1;8;0;1222;-953;3269;-2174;28;-473;550
684191;1;8;0;1222;-953;3276;-2165;16;-514;520
684201;1;8;0;1222;-941;3255;-2180;9;-548;472
684211;1;8;0;1222;-928;3231;-2209;4;-589;407
684221;1;8;0;1222;-918;3209;-2235;-34;-611;326
684231;1;8;0;1222;-945;3172;-2254;-72;-600;272
684241;1;8;0;1222;-964;3178;-2200;-102;-573;239
684251;1;8;0;1222;-1016;3230;-2175;-113;-550;216
684261;1;8;0;1222;-995;3276;-2134;-92;-519;179
684271;1;8;0;1222;-994;3300;-2061;-59;-488;165
684281;1;8;0;1222;-1020;3282;-2037;-23;-489;149
684291;1;8;0;1222;-1018;3296;-2006;2;-601;118
684301;1;8;0;1222;-1015;3335;-1982;-16;-774;101
684311;1;8;0;1222;-998;3377;-1971;-27;-963;134
684321;1;8;0;1222;-1005;3407;-1936;-37;-1120;219
684331;1;8;0;1222;-1021;3431;-1925;-36;-1227;352
684341;1;8;0;1222;-1000;3426;-1884;10;-1278;481
684351;1;8;0;1222;-929;3364;-1906;36;-1270;582
684361;1;8;0;1222;-843;3239;-1969;119;-1179;600
684371;1;8;0;1222;-748;3075;-2102;122;-1005;520
684381;1;8;0;1222;-827;2781;-2132;141;-873;323
684391;1;8;0;1222;-977;2757;-2137;178;-1006;9
684401;1;8;0;1222;-943;2987;-2206;101;-1128;-200
684411;1;8;0;1222;-829;3108;-2224;0;-1055;-133
684421;1;8;0;1222;-768;3070;-2232;-16;-858;54
684431;1;8;0;1222;-752;2957;-2194;-10;-516;277
684441;1;8;0;1222;-734;2776;-2066;2;-179;366
684451;1;8;0;1222;-698;2575;-1893;44;-52;211
684461;1;8;0;1222;-661;2532;-1758;84;-145;-91
684471;1;8;0;1222;-605;2566;-1772;55;-289;-338
684481;1;8;0;1222;-580;2624;-1901;-110;-321;-363
684491;1;8;0;1222;-585;2637;-2018;-296;-260;-269
684501;1;8;0;1222;-658;2685;-2084;-465;-128;-110
684511;1;8;0;1222;-702;2745;-2046;-565;-3;-71
684521;1;8;0;1222;-701;2805;-1934;-561;103;-79
684531;1;8;0;1222;-707;2817;-1789;-428;96;-124
684541;1;8;0;1222;-734;2868;-1643;-263;-1;-138
684551;1;8;0;1222;-642;2898;-1520;-177;-119;-65
684561;1;8;0;1222;-548;2805;-1488;-198;-104;15
684571;1;8;0;1222;-437;2731;-1676;-287;26;102
684581;1;8;0;1222;-525;2667;-1960;-457;74;118
684591;1;8;0;1223;-754;2740;-2280;-663;-49;5
684601;1;8;0;1223;-898;2963;-2544;-929;-221;-193
684611;1;8;0;1223;-1054;3073;-2581;-1102;-272;-406
684621;1;8;0;1223;-1179;3061;-2338;-1043;-294;-646
684631;1;8;0;1223;-1201;3136;-1987;-801;-327;-882
684641;1;8;0;1223;-1033;3164;-1789;-516;-202;-909
684651;1;8;0;1223;-827;3047;-1727;-298;54;-783
684661;1;8;0;1223;-717;2942;-1819;-233;250;-567
