timestamp;subject_id;activity;label;seq;ax;ay;az;gx;gy;gz
1706158;1;12;1;3215;-1474;3637;-1290;-1592;-625;443
1706168;1;12;1;3215;-1472;3681;-1426;-1724;-549;509
1706178;1;12;1;3215;-1439;3741;-1524;-1792;-374;594
1706188;1;12;1;3215;-1468;3715;-1587;-1770;-146;709
1706198;1;12;1;3215;-1518;3677;-1597;-1694;91;806
1706208;1;12;1;3215;-1533;3691;-1577;-1592;303;881
1706218;1;12;1;3215;-1547;3717;-1468;-1451;474;944
1706228;1;12;1;3215;-1569;3721;-1346;-1286;571;1048
1706238;1;12;1;3215;-1608;3689;-1199;-1109;569;1154
1706248;1;12;1;3215;-1626;3619;-1041;-933;474;1226
1706258;1;12;1;3215;-1547;3521;-908;-831;353;1252
1706268;1;12;1;3215;-1403;3420;-842;-751;226;1267
1706278;1;12;1;3215;-1253;3309;-848;-752;144;1341
1706288;1;12;1;3215;-1168;3215;-940;-810;100;1432
1706298;1;12;1;3215;-1068;3098;-1006;-813;119;1430
1706308;1;12;1;3215;-1000;3075;-1089;-702;171;1287
1706318;1;12;1;3215;-951;3112;-1207;-516;268;1047
1706328;1;12;1;3215;-901;3164;-1301;-337;479;804
1706338;1;12;1;3215;-851;3299;-1359;-204;766;662
1706348;1;12;1;3215;-774;3424;-1392;-160;1112;698
1706358;1;12;1;3215;-672;3508;-1403;-153;1510;873
1706368;1;12;1;3215;-719;3631;-1475;-124;1855;961
1706378;1;12;1;3215;-707;3802;-1473;-62;2029;941
1706388;1;12;1;3215;-822;3991;-1436;30;2102;874
1706398;1;12;1;3215;-1029;4190;-1357;123;1999;736
1706408;1;12;1;3215;-1201;4328;-1216;201;1747;615
1706418;1;12;1;3215;-1272;4333;-1033;163;1503;642
1706428;1;12;1;3215;-1126;4281;-878;-22;1345;878
1706438;1;12;1;3215;-1014;4246;-917;-268;1201;1213
1706448;1;12;1;3215;-931;4195;-1116;-484;972;1501
1706458;1;12;1;3215;-792;4136;-1375;-587;673;1648
1706468;1;12;1;3215;-576;4091;-1581;-618;465;1674
1706478;1;12;1;3215;-426;4021;-1765;-625;385;1552
1706488;1;12;1;3215;-399;3993;-1917;-680;385;1254
1706498;1;12;1;3215;-373;3951;-1996;-851;484;910
1706508;1;12;1;3215;-411;3881;-2033;-1069;652;604
1706518;1;12;1;3215;-459;3749;-1974;-1228;836;263
1706528;1;12;1;3215;-597;3702;-1797;-1304;889;-73
1706538;1;12;1;3215;-770;3747;-1563;-1312;908;-295
1706548;1;12;1;3215;-864;3889;-1303;-1361;907;-243
1706558;1;12;1;3215;-875;3926;-1054;-1448;854;-62
1706568;1;12;1;3215;-855;3862;-884;-1496;789;125
1706578;1;12;1;3215;-757;3661;-739;-1450;741;258
1706588;1;12;1;3215;-750;3574;-752;-1293;694;294
1706598;1;12;1;3215;-684;3486;-825;-1100;630;257
1706608;1;12;1;3215;-652;3478;-925;-875;627;184
1706618;1;12;1;3215;-655;3513;-1006;-700;617;153
1706628;1;12;1;3215;-635;3570;-1090;-559;591;82
1706638;1;12;1;3215;-645;3541;-1135;-440;544;46
1706648;1;12;1;3215;-673;3544;-1125;-334;565;113
1706658;1;12;1;3216;-643;3593;-1112;-240;592;187
1706668;1;12;1;3216;-645;3636;-1115;-149;623;247
1706678;1;12;1;3216;-693;3668;-1183;-56;633;293
1706688;1;12;1;3216;-811;3710;-1226;55;577;268
1706698;1;12;1;3216;-929;3816;-1314;168;426;178
1706708;1;12;1;3216;-1058;3866;-1400;248;173;48
1706718;1;12;1;3216;-1189;3904;-1461;255;-43;-5
1706728;1;12;1;3216;-1365;3939;-1399;192;-298;38
1706738;1;12;1;3216;-1438;4095;-1278;100;-520;154
1706748;1;12;1;3216;-1469;4199;-1114;-99;-718;439
1706758;1;12;1;3216;-1396;4230;-1013;-329;-939;756
1706768;1;12;1;3216;-1255;4150;-971;-543;-1141;974
1706778;1;12;1;3216;-1065;4018;-997;-674;-1243;1032
1706788;1;12;1;3216;-816;3853;-1103;-772;-1179;1004
1706798;1;12;1;3216;-590;3644;-1200;-775;-960;873
1706808;1;12;1;3216;-401;3440;-1315;-713;-642;543
1706818;1;12;1;3216;-283;3316;-1428;-608;-289;77
1706828;1;12;1;3216;-253;3323;-1503;-505;48;-456
1706838;1;12;1;3216;-313;3385;-1508;-483;369;-931
1706848;1;12;1;3216;-425;3476;-1427;-482;665;-1283
1706858;1;12;1;3216;-557;3610;-1302;-463;904;-1509
1706868;1;12;1;3216;-766;3713;-1215;-411;1102;-1594
1706878;1;12;1;3216;-902;3828;-1141;-377;1265;-1462
1706888;1;12;1;3216;-1002;3894;-1094;-345;1409;-1222
1706898;1;12;1;3216;-1015;3915;-1070;-302;1514;-977
1706908;1;12;1;3216;-1004;3918;-1096;-215;1536;-758
1706918;1;12;1;3216;-1037;3913;-1153;-176;1496;-551
1706928;1;12;1;3216;-1051;3900;-1183;-181;1383;-399
1706938;1;12;1;3216;-1066;3845;-1193;-210;1230;-268
1706948;1;12;1;3216;-1048;3810;-1156;-191;1033;-217
1706958;1;12;1;3216;-1005;3780;-1129;-205;859;-197
1706968;1;12;1;3216;-939;3773;-1114;-225;692;-203
1706978;1;12;1;3216;-853;3793;-1115;-231;546;-210
1706988;1;12;1;3216;-806;3833;-1130;-202;450;-193
1706998;1;12;1;3216;-766;3846;-1138;-170;403;-152
1707008;1;12;1;3216;-753;3831;-1143;-137;366;-91
1707018;1;12;1;3216;-750;3830;-1153;-113;310;-80
1707028;1;12;1;3216;-774;3850;-1141;-105;223;-95
1707038;1;12;1;3216;-762;3899;-1149;-126;130;-113
1707048;1;12;1;3216;-729;3942;-1176;-187;87;-63
1707058;1;12;1;3216;-704;3933;-1248;-230;108;12
1707068;1;12;1;3216;-727;3866;-1262;-236;148;97
1707078;1;12;1;3216;-661;3828;-1252;-207;170;95
1707088;1;12;1;3216;-624;3798;-1235;-226;205;55
1707098;1;12;1;3216;-579;3788;-1229;-254;229;-23
1707108;1;12;1;3216;-534;3816;-1280;-261;241;-136
1707118;1;12;1;3216;-502;3860;-1334;-311;273;-205
1707128;1;12;1;3216;-470;3851;-1331;-342;322;-231
1707138;1;12;1;3216;-420;3816;-1321;-346;350;-275
1707148;1;12;1;3216;-429;3759;-1312;-313;381;-381
1707158;1;12;1;3217;-437;3727;-1282;-342;407;-505
1707168;1;12;1;3217;-455;3698;-1302;-382;475;-625
1707178;1;12;1;3217;-481;3704;-1322;-409;594;-738
1707188;1;12;1;3217;-433;3766;-1315;-430;816;-807
1707198;1;12;1;3217;-435;3802;-1339;-408;1053;-821
1707208;1;12;1;3217;-498;3824;-1345;-339;1235;-822
1707218;1;12;1;3217;-542;3838;-1328;-294;1330;-793
1707228;1;12;1;3217;-571;3838;-1271;-279;1355;-763
1707238;1;12;1;3217;-594;3820;-1209;-300;1363;-743
1707248;1;12;1;3217;-605;3801;-1187;-299;1405;-735
1707258;1;12;1;3217;-553;3847;-1168;-362;1506;-702
1707268;1;12;1;3217;-472;3905;-1202;-387;1675;-680
1707278;1;12;1;3217;-356;3940;-1311;-428;1902;-625
1707288;1;12;1;3217;-225;3932;-1378;-448;2142;-595
1707298;1;12;1;3217;-178;3897;-1512;-388;2339;-657
1707308;1;12;1;3217;-236;3863;-1627;-357;2419;-840
1707318;1;12;1;3217;-351;3934;-1684;-407;2409;-1073
1707328;1;12;1;3217;-479;4005;-1662;-538;2358;-1236
1707338;1;12;1;3217;-703;3991;-1662;-727;2325;-1348
1707348;1;12;1;3217;-858;3955;-1611;-857;2382;-1343
1707358;1;12;1;3217;-941;3936;-1536;-923;2500;-1240
1707368;1;12;1;3217;-975;3889;-1438;-951;2701;-1071
1707378;1;12;1;3217;-948;3908;-1323;-1035;2953;-816
1707388;1;12;1;3217;-869;3841;-1233;-1095;3099;-550
1707398;1;12;1;3217;-835;3781;-1142;-1109;3147;-375
1707408;1;12;1;3217;-786;3704;-1161;-1109;3103;-215
1707418;1;12;1;3217;-820;3605;-1205;-1009;2934;-190
1707428;1;12;1;3217;-921;3610;-1255;-892;2751;-270
1707438;1;12;1;3217;-1018;3709;-1221;-818;2493;-345
1707448;1;12;1;3217;-1067;3894;-1201;-872;2292;-280
1707458;1;12;1;3217;-1020;4045;-1197;-1027;2275;-13
1707468;1;12;1;3217;-1004;3976;-1174;-1140;2430;321
1707478;1;12;1;3217;-1086;3887;-1107;-1069;2513;512
1707488;1;12;1;3217;-1142;3958;-1016;-969;2417;588
1707498;1;12;1;3217;-1173;4021;-919;-929;2066;626
1707508;1;12;1;3217;-1234;4081;-884;-939;1460;635
1707518;1;12;1;3217;-1311;4013;-811;-1030;662;627
1707528;1;12;1;3217;-1247;4090;-600;-1120;-159;765
1707538;1;12;1;3217;-1151;4119;-405;-1146;-818;1182
1707548;1;12;1;3217;-1110;4101;-269;-1008;-1340;1747
1707558;1;12;1;3217;-1091;3905;-277;-703;-1810;2184
1707568;1;12;1;3217;-1078;3605;-354;-243;-2242;2381
1707578;1;12;1;3217;-1035;3385;-470;216;-2592;2361
1707588;1;12;1;3217;-848;3250;-672;524;-2797;2143
1707598;1;12;1;3217;-686;3368;-1159;609;-2801;1840
1707608;1;12;1;3217;-404;3558;-1644;294;-2577;1673
1707618;1;12;1;3217;-342;3709;-2200;-71;-2087;1502
1707628;1;12;1;3217;-367;3948;-2736;-376;-1466;1362
1707638;1;12;1;3217;-462;4326;-2988;-711;-550;1269
1707648;1;12;1;3217;-611;4654;-2834;-1140;532;1378
1707658;1;12;1;3218;-778;4827;-2451;-1508;1578;1848
1707668;1;12;1;3218;-1022;4589;-1804;-1732;2477;2556
1707678;1;12;1;3218;-1169;4209;-1129;-1799;3023;3158
1707688;1;12;1;3218;-1088;3908;-698;-1904;3211;3575
1707698;1;12;1;3218;-865;3617;-544;-2021;3016;3755
1707708;1;12;1;3218;-738;3479;-842;-2155;2773;3810
1707718;1;12;1;3218;-821;3303;-1178;-2351;2730;3834
1707728;1;12;1;3218;-863;3337;-1230;-2455;2893;3854
1707738;1;12;1;3218;-909;3521;-936;-2351;3051;4028
1707748;1;12;1;3218;-767;3778;-563;-2063;3133;4576
1707758;1;12;1;3218;-828;3788;-287;-1495;2945;5259
1707768;1;12;1;3218;-837;3808;-147;-978;2716;5964
1707778;1;12;1;3218;-855;3797;-205;-517;2630;6380
1707788;1;12;1;3218;-819;3843;-507;-309;2681;6841
1707798;1;12;1;3218;-605;4045;-792;-488;2793;7483
1707808;1;12;1;3218;-238;4155;-893;-949;2924;8302
1707818;1;12;1;3218;-37;3819;-1070;-1437;2682;8998
1707828;1;12;1;3218;71;3164;-1269;-1909;2235;9078
1707838;1;12;1;3218;480;2596;-1414;-1862;2077;8266
1707848;1;12;1;3218;1308;2709;-1525;-1579;2260;7147
1707858;1;12;1;3218;1597;3031;-1473;-1265;2331;6125
1707868;1;12;1;3218;1623;3613;-1135;-1055;2062;5289
1707878;1;12;1;3218;1277;4036;-806;-916;1837;4723
1707888;1;12;1;3218;696;4217;-718;-1180;1985;4549
1707898;1;12;1;3218;-79;3845;-1200;-1250;2190;4429
1707908;1;12;1;3218;-150;3630;-1603;-1113;2142;4042
1707918;1;12;1;3218;-17;3675;-1582;-1206;1775;3247
1707928;1;12;1;3218;221;3808;-1403;-1305;1987;2418
1707938;1;12;1;3218;612;4233;-1197;-1264;2315;2151
1707948;1;12;1;3218;783;4404;-840;-1446;2282;2295
1707958;1;12;1;3218;882;4268;-347;-1745;2105;2397
1707968;1;12;1;3218;1050;3972;16;-1982;1968;2217
1707978;1;12;1;3218;888;3296;-114;-1992;1730;1389
1707988;1;12;1;3218;742;2751;-663;-1473;1605;17
1707998;1;12;1;3218;863;2928;-1076;-615;1561;-1234
1708008;1;12;1;3218;1508;3794;-975;83;1774;-1715
1708018;1;12;1;3218;1673;4724;-508;499;1922;-1598
1708028;1;12;1;3218;1457;5437;223;647;1576;-1304
1708038;1;12;1;3218;1128;5637;796;665;548;-1369
1708048;1;12;1;3218;886;5623;728;851;-531;-1822
1708058;1;12;1;3218;819;5717;102;725;-1342;-2298
1708068;1;12;1;3218;229;5444;-878;579;-1504;-2420
1708078;1;12;1;3218;-247;5206;-1768;528;-1488;-2313
1708088;1;12;1;3218;55;5506;-1879;172;-1287;-1435
1708098;1;12;1;3218;725;5712;-1060;-279;-845;101
1708108;1;12;1;3218;1067;5453;-1;-269;-886;1247
1708118;1;12;1;3218;1008;4728;736;-16;-1597;1489
1708128;1;12;1;3218;1039;3803;638;490;-2513;651
1708138;1;12;1;3218;1203;3304;-199;931;-3325;-793
1708148;1;12;1;3218;1131;3051;-1020;803;-3543;-2260
1708158;1;12;1;3219;932;3116;-1703;484;-3242;-3477
1708168;1;12;1;3219;895;3475;-1982;165;-2769;-3752
1708178;1;12;1;3219;950;3987;-1770;41;-1851;-3355
1708188;1;12;1;3219;806;4246;-1208;12;-1165;-2882
1708198;1;12;1;3219;622;4355;-633;381;-854;-2482
1708208;1;12;1;3219;343;4282;-227;883;-1171;-2426
1708218;1;12;1;3219;198;4207;-3;1241;-1708;-2548
1708228;1;12;1;3219;321;4114;-29;1373;-2172;-2539
1708238;1;12;1;3219;550;3973;-189;1385;-2585;-2374
1708248;1;12;1;3219;678;3792;-588;1405;-2911;-2201
1708258;1;12;1;3219;786;3640;-1000;1463;-2946;-2156
1708268;1;12;1;3219;822;3547;-1306;1424;-2790;-2143
1708278;1;12;1;3219;883;3528;-1464;1281;-2397;-2154
1708288;1;12;1;3219;1004;3456;-1467;1012;-1975;-2061
1708298;1;12;1;3219;1049;3382;-1235;829;-1792;-2146
1708308;1;12;1;3219;957;3322;-973;782;-1771;-2454
1708318;1;12;1;3219;796;3326;-879;901;-1866;-2854
1708328;1;12;1;3219;617;3432;-816;1063;-1951;-3141
1708338;1;12;1;3219;469;3541;-841;1202;-1996;-3181
1708348;1;12;1;3219;436;3690;-852;1255;-1999;-3008
1708358;1;12;1;3219;412;3735;-862;1259;-2044;-2691
1708368;1;12;1;3219;530;3773;-820;1315;-1981;-2433
1708378;1;12;1;3219;661;3783;-854;1340;-1937;-2272
1708388;1;12;1;3219;814;3801;-935;1336;-1882;-2160
1708398;1;12;1;3219;885;3794;-1046;1329;-1859;-2125
1708408;1;12;1;3219;853;3772;-1139;1346;-1842;-2197
1708418;1;12;1;3219;700;3733;-1223;1398;-1859;-2361
1708428;1;12;1;3219;501;3703;-1236;1433;-1920;-2532
1708438;1;12;1;3219;379;3711;-1111;1346;-1936;-2638
1708448;1;12;1;3219;393;3804;-973;1192;-1900;-2609
1708458;1;12;1;3219;502;3892;-903;1030;-1818;-2481
1708468;1;12;1;3219;481;3915;-972;952;-1792;-2386
1708478;1;12;1;3219;410;3929;-1081;997;-1803;-2435
1708488;1;12;1;3219;257;3922;-1224;1070;-1843;-2538
1708498;1;12;1;3219;174;3986;-1286;1074;-1844;-2547
1708508;1;12;1;3219;191;4028;-1273;1047;-1741;-2426
1708518;1;12;1;3219;226;3996;-1254;1032;-1579;-2218
1708528;1;12;1;3219;185;3950;-1215;1032;-1455;-2033
1708538;1;12;1;3219;161;3918;-1141;998;-1440;-1931
1708548;1;12;1;3219;172;3918;-1056;937;-1473;-1902
1708558;1;12;1;3219;101;3887;-1086;862;-1595;-1942
1708568;1;12;1;3219;-4;3883;-1102;819;-1757;-2112
1708578;1;12;1;3219;-119;3952;-1128;721;-1898;-2313
1708588;1;12;1;3219;-197;4065;-1166;637;-1979;-2463
1708598;1;12;1;3219;-101;4175;-1149;504;-1950;-2399
1708608;1;12;1;3219;-42;4126;-1178;468;-1838;-2137
1708618;1;12;1;3219;-103;3958;-1216;569;-1753;-1897
1708628;1;12;1;3219;-218;3825;-1145;731;-1773;-1796
1708638;1;12;1;3219;-298;3717;-1077;829;-1907;-1882
1708648;1;12;1;3219;-334;3733;-1067;827;-2124;-2037
1708658;1;12;1;3220;-316;3773;-1053;747;-2347;-2144
1708668;1;12;1;3220;-397;3840;-1141;662;-2561;-2220
1708678;1;12;1;3220;-459;3951;-1202;628;-2704;-2274
1708688;1;12;1;3220;-492;4124;-1190;574;-2796;-2269
1708698;1;12;1;3220;-537;4256;-1186;570;-2872;-2189
1708708;1;12;1;3220;-569;4172;-1210;571;-2947;-1991
1708718;1;12;1;3220;-516;4005;-1180;591;-2960;-1804
1708728;1;12;1;3220;-458;3869;-1170;674;-2968;-1708
1708738;1;12;1;3220;-410;3756;-1182;798;-2987;-1726
1708748;1;12;1;3220;-433;3725;-1218;879;-3010;-1792
1708758;1;12;1;3220;-446;3700;-1259;865;-3042;-1831
1708768;1;12;1;3220;-534;3688;-1344;766;-3071;-1881
1708778;1;12;1;3220;-611;3607;-1362;701;-3087;-1958
1708788;1;12;1;3220;-558;3620;-1323;746;-3057;-2060
1708798;1;12;1;3220;-467;3691;-1306;799;-2960;-2057
1708808;1;12;1;3220;-393;3698;-1308;839;-2736;-1953
1708818;1;12;1;3220;-427;3684;-1349;875;-2476;-1893
1708828;1;12;1;3220;-506;3693;-1374;1015;-2328;-2035
1708838;1;12;1;3220;-625;3746;-1363;1142;-2357;-2305
1708848;1;12;1;3220;-821;3814;-1288;1170;-2528;-2620
1708858;1;12;1;3220;-1017;3863;-1178;1185;-2785;-2856
1708868;1;12;1;3220;-1047;3981;-921;1242;-3111;-2935
1708878;1;12;1;3220;-1039;3952;-734;1366;-3421;-2780
1708888;1;12;1;3220;-1078;3894;-659;1540;-3723;-2453
1708898;1;12;1;3220;-1187;3916;-743;1788;-4141;-2107
1708908;1;12;1;3220;-1234;3819;-838;1997;-4447;-1989
1708918;1;12;1;3220;-1214;3838;-1086;2115;-4585;-1929
1708928;1;12;1;3220;-1192;3849;-1357;2119;-4495;-1966
1708938;1;12;1;3220;-1153;3838;-1563;2002;-4376;-1994
1708948;1;12;1;3220;-1083;3770;-1746;1854;-4341;-2005
1708958;1;12;1;3220;-1048;3598;-1858;1705;-4190;-2046
1708968;1;12;1;3220;-1068;3432;-1880;1517;-3969;-1944
1708978;1;12;1;3220;-1028;3153;-1695;1477;-3741;-1886
1708988;1;12;1;3220;-1051;2959;-1459;1329;-3838;-1932
1708998;1;12;1;3220;-1126;2887;-1400;1661;-3612;-1981
1709008;1;12;1;3220;-1247;3051;-1491;1811;-3582;-2139
1709018;1;12;1;3220;-1336;3207;-1648;1900;-3528;-2260
1709028;1;12;1;3220;-1349;3411;-1844;1917;-3290;-2250
1709038;1;12;1;3220;-1275;3493;-1996;1754;-3101;-2129
1709048;1;12;1;3220;-1287;3348;-2088;1645;-2863;-1939
1709058;1;12;1;3220;-1433;3021;-2179;1692;-2558;-1963
1709068;1;12;1;3220;-1697;2871;-2144;1913;-2269;-2253
1709078;1;12;1;3220;-1966;3032;-1950;2160;-2049;-2643
1709088;1;12;1;3220;-2040;3360;-1756;2365;-2039;-2750
1709098;1;12;1;3220;-2026;3522;-1714;2429;-2094;-2468
1709108;1;12;1;3220;-2041;3415;-1750;2450;-2115;-1969
1709118;1;12;1;3220;-1940;3371;-1756;2420;-2113;-1409
1709128;1;12;1;3220;-1653;3269;-1805;2399;-2050;-887
1709138;1;12;1;3220;-1407;2991;-1909;2512;-1912;-656
1709148;1;12;1;3220;-1413;2705;-2133;2752;-1770;-889
1709158;1;12;1;3221;-1544;2671;-2244;3038;-1635;-1639
1709168;1;12;1;3221;-1688;2785;-2269;3249;-1373;-2621
1709178;1;12;1;3221;-1934;3134;-2148;3390;-1199;-3338
1709188;1;12;1;3221;-2190;3529;-2020;3385;-1188;-3506
1709198;1;12;1;3221;-2276;3725;-1927;3174;-1188;-3028
1709208;1;12;1;3221;-2182;3738;-1812;2779;-938;-1981
1709218;1;12;1;3221;-2064;3491;-1837;2415;-631;-857
1709228;1;12;1;3221;-1929;3141;-1961;2187;-465;-218
1709238;1;12;1;3221;-1868;2864;-2067;2028;-482;-171
1709248;1;12;1;3221;-1883;2622;-2140;2020;-567;-697
1709258;1;12;1;3221;-1987;2531;-2128;2017;-763;-1484
1709268;1;12;1;3221;-2148;2701;-2076;2029;-980;-2293
1709278;1;12;1;3221;-2337;3088;-1875;2028;-1235;-2736
1709288;1;12;1;3221;-2594;3465;-1748;1776;-1482;-2439
1709298;1;12;1;3221;-2578;3355;-1511;1557;-1473;-1798
1709308;1;12;1;3221;-2608;3275;-1466;1420;-1338;-1096
1709318;1;12;1;3221;-2478;3055;-1522;1293;-1297;-432
1709328;1;12;1;3221;-2289;2783;-1689;1174;-1367;57
1709338;1;12;1;3221;-2101;2499;-1853;1039;-1444;245
1709348;1;12;1;3221;-2069;2302;-1993;862;-1539;184
1709358;1;12;1;3221;-2193;2314;-2045;769;-1694;-147
1709368;1;12;1;3221;-2146;2125;-1933;954;-1872;-771
1709378;1;12;1;3221;-2335;2482;-1852;1145;-2089;-1334
1709388;1;12;1;3221;-2617;2812;-1802;961;-2367;-1309
1709398;1;12;1;3221;-2545;2862;-1746;1114;-2369;-1335
1709408;1;12;1;3221;-2684;2968;-1802;1081;-2175;-964
1709418;1;12;1;3221;-2790;3092;-1886;1017;-1983;-464
1709428;1;12;1;3221;-2610;2753;-1920;1157;-1673;-229
1709438;1;12;1;3221;-2609;2780;-2057;1103;-1388;105
1709448;1;12;1;3221;-2326;2567;-2042;1111;-1049;180
1709458;1;12;1;3221;-2205;2555;-2098;1045;-683;240
1709468;1;12;1;3221;-2088;2438;-2093;945;-402;183
1709478;1;12;1;3221;-2033;2413;-2090;935;-227;-108
1709488;1;12;1;3221;-2072;2422;-2040;846;-169;-402
1709498;1;12;1;3221;-2160;2493;-1950;741;-203;-670
1709508;1;12;1;3221;-2290;2586;-1870;647;-293;-801
1709518;1;12;1;3221;-2493;2654;-1749;609;-432;-780
1709528;1;12;1;3221;-2656;2702;-1614;598;-608;-608
1709538;1;12;1;3221;-2715;2737;-1513;545;-766;-360
1709548;1;12;1;3221;-2666;2729;-1502;436;-874;-57
1709558;1;12;1;3221;-2559;2565;-1637;365;-1062;251
1709568;1;12;1;3221;-2518;2463;-1810;349;-1044;200
1709578;1;12;1;3221;-2503;2425;-2035;354;-1022;106
1709588;1;12;1;3221;-2517;2473;-2135;382;-946;-80
1709598;1;12;1;3221;-2523;2578;-2145;399;-867;-192
1709608;1;12;1;3221;-2550;2657;-2094;397;-773;-129
1709618;1;12;1;3221;-2571;2636;-1979;367;-638;43
1709628;1;12;1;3221;-2550;2557;-1897;371;-513;218
1709638;1;12;1;3221;-2556;2453;-1825;395;-440;302
1709648;1;12;1;3221;-2527;2394;-1817;425;-471;241
