timestamp;subject_id;activity;label;seq;ax;ay;az;gx;gy;gz
1888141;1;13;1;3574;-2511;2458;-940;1447;851;847
1888151;1;13;1;3574;-2531;2629;-964;1401;804;898
1888161;1;13;1;3574;-2647;2707;-962;1454;831;953
1888171;1;13;1;3574;-2787;2850;-837;1582;907;945
1888181;1;13;1;3574;-2907;3054;-711;1627;983;945
1888191;1;13;1;3574;-2953;3224;-651;1545;1061;1026
1888201;1;13;1;3574;-2925;3316;-620;1438;1128;1178
1888211;1;13;1;3574;-2892;3347;-620;1405;1177;1315
1888221;1;13;1;3574;-2937;3259;-639;1411;1174;1409
1888231;1;13;1;3574;-2978;3189;-682;1461;1070;1416
1888241;1;13;1;3574;-2974;3180;-743;1501;914;1373
1888251;1;13;1;3574;-2912;3194;-825;1508;812;1364
1888261;1;13;1;3574;-2836;3183;-871;1483;767;1448
1888271;1;13;1;3574;-2694;3157;-851;1492;738;1565
1888281;1;13;1;3574;-2529;3194;-770;1520;711;1685
1888291;1;13;1;3574;-2292;3156;-731;1528;721;1792
1888301;1;13;1;3574;-2078;3073;-740;1547;724;1859
1888311;1;13;1;3574;-1946;2999;-806;1501;700;1858
1888321;1;13;1;3574;-1823;2885;-906;1375;690;1809
1888331;1;13;1;3574;-1831;2785;-1074;1250;718;1604
1888341;1;13;1;3574;-1991;2782;-1226;1072;706;1332
1888351;1;13;1;3574;-2138;3013;-1314;820;670;1055
1888361;1;13;1;3574;-2214;3195;-1324;518;715;902
1888371;1;13;1;3574;-2340;3241;-1235;283;886;944
1888381;1;13;1;3574;-2505;3239;-1071;205;1102;1055
1888391;1;13;1;3574;-2633;3221;-850;258;1215;1231
1888401;1;13;1;3574;-2717;3212;-619;275;1241;1471
1888411;1;13;1;3574;-2714;3277;-419;197;1134;1695
1888421;1;13;1;3574;-2666;3325;-347;41;944;1850
1888431;1;13;1;3574;-2556;3391;-419;-162;716;1901
1888441;1;13;1;3574;-2374;3488;-622;-265;526;1910
1888451;1;13;1;3574;-2262;3563;-778;-274;404;1967
1888461;1;13;1;3574;-2293;3578;-954;-208;273;2115
1888471;1;13;1;3574;-2317;3675;-1014;-146;124;2258
1888481;1;13;1;3574;-2281;3816;-942;-162;39;2452
1888491;1;13;1;3574;-2156;3828;-875;-258;68;2707
1888501;1;13;1;3574;-1978;3771;-903;-400;181;2937
1888511;1;13;1;3574;-1795;3685;-1028;-520;300;3065
1888521;1;13;1;3574;-1644;3631;-1242;-580;330;3065
1888531;1;13;1;3574;-1493;3579;-1353;-617;395;2998
1888541;1;13;1;3574;-1469;3538;-1307;-604;510;2879
1888551;1;13;1;3574;-1425;3555;-1192;-575;686;2733
1888561;1;13;1;3574;-1411;3562;-1051;-504;892;2591
1888571;1;13;1;3574;-1452;3618;-897;-423;1069;2477
1888581;1;13;1;3574;-1468;3725;-822;-369;1100;2433
1888591;1;13;1;3574;-1479;3826;-801;-383;1025;2491
1888601;1;13;1;3574;-1442;3941;-824;-494;929;2659
1888611;1;13;1;3574;-1390;3989;-904;-652;870;2873
1888621;1;13;1;3574;-1382;3961;-982;-769;831;3020
1888631;1;13;1;3574;-1411;3879;-1043;-753;768;3032
1888641;1;13;1;3575;-1430;3803;-1113;-747;704;2997
1888651;1;13;1;3575;-1414;3830;-1130;-765;700;2998
1888661;1;13;1;3575;-1424;3779;-1109;-775;729;3064
1888671;1;13;1;3575;-1362;3755;-1043;-746;761;3134
1888681;1;13;1;3575;-1275;3822;-989;-765;846;3216
1888691;1;13;1;3575;-1126;3736;-924;-809;975;3275
1888701;1;13;1;3575;-1023;3704;-902;-814;1088;3210
1888711;1;13;1;3575;-912;3697;-898;-838;1200;3064
1888721;1;13;1;3575;-857;3618;-945;-909;1200;2891
1888731;1;13;1;3575;-827;3609;-996;-980;1107;2671
1888741;1;13;1;3575;-857;3609;-1075;-1094;1012;2425
1888751;1;13;1;3575;-903;3603;-1158;-1144;932;2186
1888761;1;13;1;3575;-955;3713;-1192;-1147;935;2009
1888771;1;13;1;3575;-1020;3812;-1154;-1075;1077;1866
1888781;1;13;1;3575;-1014;3848;-1086;-962;1291;1797
1888791;1;13;1;3575;-941;3863;-1017;-823;1566;1735
1888801;1;13;1;3575;-872;3852;-998;-746;1843;1692
1888811;1;13;1;3575;-853;3792;-1044;-669;2002;1561
1888821;1;13;1;3575;-894;3861;-1162;-604;2012;1294
1888831;1;13;1;3575;-981;4052;-1281;-661;1850;991
1888841;1;13;1;3575;-1034;4291;-1333;-854;1690;805
1888851;1;13;1;3575;-1215;4365;-1294;-939;1534;617
1888861;1;13;1;3575;-1290;4356;-1098;-857;1398;413
1888871;1;13;1;3575;-1261;4199;-825;-649;1327;245
1888881;1;13;1;3575;-1149;4027;-617;-343;1190;205
1888891;1;13;1;3575;-1016;3814;-546;-112;1038;325
1888901;1;13;1;3575;-949;3662;-620;-33;781;458
1888911;1;13;1;3575;-809;3640;-741;-52;513;535
1888921;1;13;1;3575;-721;3653;-909;-161;225;528
1888931;1;13;1;3575;-709;3793;-1080;-273;-112;444
1888941;1;13;1;3575;-732;3910;-1199;-378;-420;352
1888951;1;13;1;3575;-774;3939;-1259;-403;-632;308
1888961;1;13;1;3575;-786;3857;-1213;-304;-719;305
1888971;1;13;1;3575;-711;3726;-1077;-93;-743;301
1888981;1;13;1;3575;-547;3641;-931;171;-701;317
1888991;1;13;1;3575;-372;3530;-873;377;-619;348
1889001;1;13;1;3575;-364;3430;-939;533;-528;289
1889011;1;13;1;3575;-404;3427;-992;639;-623;102
1889021;1;13;1;3575;-593;3534;-1101;675;-901;-224
1889031;1;13;1;3575;-788;3745;-1157;567;-1290;-514
1889041;1;13;1;3575;-928;3905;-1152;350;-1626;-624
1889051;1;13;1;3575;-1039;3945;-1086;227;-1812;-563
1889061;1;13;1;3575;-1085;3903;-971;280;-1885;-386
1889071;1;13;1;3575;-1029;3786;-836;484;-1860;-194
1889081;1;13;1;3575;-970;3694;-762;731;-1790;-29
1889091;1;13;1;3575;-817;3623;-723;857;-1710;106
1889101;1;13;1;3575;-728;3598;-794;1003;-1682;134
1889111;1;13;1;3575;-687;3693;-936;1074;-1713;44
1889121;1;13;1;3575;-766;3752;-1131;1022;-1862;-54
1889131;1;13;1;3575;-907;3778;-1313;942;-2144;-145
1889141;1;13;1;3576;-1026;3741;-1359;840;-2376;-242
1889151;1;13;1;3576;-1002;3708;-1287;721;-2443;-234
1889161;1;13;1;3576;-939;3590;-1181;666;-2330;-142
1889171;1;13;1;3576;-908;3581;-1101;725;-2147;-69
1889181;1;13;1;3576;-877;3677;-1048;841;-1934;-21
1889191;1;13;1;3576;-929;3780;-1124;970;-1839;-22
1889201;1;13;1;3576;-1041;3955;-1267;961;-1840;-10
1889211;1;13;1;3576;-1168;3996;-1368;841;-1894;66
1889221;1;13;1;3576;-1285;3929;-1374;751;-1997;122
1889231;1;13;1;3576;-1260;3852;-1287;717;-2044;179
1889241;1;13;1;3576;-1144;3650;-1148;788;-1988;264
1889251;1;13;1;3576;-1083;3557;-1057;890;-1919;356
1889261;1;13;1;3576;-961;3552;-1015;968;-1867;440
1889271;1;13;1;3576;-876;3619;-1050;999;-1833;491
1889281;1;13;1;3576;-917;3726;-1128;998;-1895;498
1889291;1;13;1;3576;-1023;3821;-1306;868;-2092;472
1889301;1;13;1;3576;-1114;3898;-1422;671;-2269;454
1889311;1;13;1;3576;-1210;3890;-1393;491;-2433;471
1889321;1;13;1;3576;-1149;3900;-1246;351;-2446;593
1889331;1;13;1;3576;-990;3830;-1091;337;-2320;776
1889341;1;13;1;3576;-881;3699;-1005;445;-2165;950
1889351;1;13;1;3576;-811;3705;-1013;606;-2074;1037
1889361;1;13;1;3576;-843;3810;-1065;710;-2148;1048
1889371;1;13;1;3576;-944;3936;-1109;722;-2411;1022
1889381;1;13;1;3576;-1077;4035;-1161;673;-2761;998
1889391;1;13;1;3576;-1197;4037;-1170;551;-2994;1067
1889401;1;13;1;3576;-1220;4015;-1173;355;-3021;1258
1889411;1;13;1;3576;-1022;3922;-1160;186;-2787;1567
1889421;1;13;1;3576;-873;3700;-1184;171;-2410;1843
1889431;1;13;1;3576;-782;3542;-1233;301;-2009;1932
1889441;1;13;1;3576;-735;3548;-1263;425;-1688;1812
1889451;1;13;1;3576;-715;3588;-1290;398;-1479;1608
1889461;1;13;1;3576;-867;3679;-1237;326;-1482;1300
1889471;1;13;1;3576;-1069;3836;-1147;253;-1696;949
1889481;1;13;1;3576;-1289;3902;-1025;214;-1945;656
1889491;1;13;1;3576;-1399;3927;-892;190;-2125;540
1889501;1;13;1;3576;-1303;3902;-789;156;-2206;661
1889511;1;13;1;3576;-1056;3828;-746;58;-2097;1017
1889521;1;13;1;3576;-839;3608;-832;14;-1818;1380
1889531;1;13;1;3576;-692;3350;-983;142;-1488;1455
1889541;1;13;1;3576;-697;3252;-1127;406;-1201;1134
1889551;1;13;1;3576;-768;3321;-1234;616;-1068;602
1889561;1;13;1;3576;-845;3501;-1307;611;-1078;120
1889571;1;13;1;3576;-988;3710;-1336;464;-1161;-232
1889581;1;13;1;3576;-1150;4001;-1337;273;-1283;-414
1889591;1;13;1;3576;-1262;4210;-1336;46;-1306;-388
1889601;1;13;1;3576;-1335;4230;-1290;-131;-1247;-186
1889611;1;13;1;3576;-1311;4107;-1239;-222;-1086;46
1889621;1;13;1;3576;-1182;3900;-1151;-302;-813;238
1889631;1;13;1;3576;-1020;3654;-1086;-343;-473;300
1889641;1;13;1;3577;-926;3473;-1082;-338;-190;166
1889651;1;13;1;3577;-950;3374;-1182;-336;-109;-122
1889661;1;13;1;3577;-1014;3449;-1245;-390;-148;-423
1889671;1;13;1;3577;-1062;3580;-1245;-511;-226;-606
1889681;1;13;1;3577;-1122;3719;-1164;-658;-245;-659
1889691;1;13;1;3577;-1133;3796;-1117;-728;-230;-608
1889701;1;13;1;3577;-1165;3824;-1027;-754;-184;-509
1889711;1;13;1;3577;-1192;3815;-999;-799;-162;-309
1889721;1;13;1;3577;-1172;3778;-936;-745;-192;-108
1889731;1;13;1;3577;-1147;3814;-888;-558;-187;12
1889741;1;13;1;3577;-1095;3823;-808;-208;43;86
1889751;1;13;1;3577;-1052;3737;-791;-191;-1;152
1889761;1;13;1;3577;-1033;3659;-748;-179;-20;214
1889771;1;13;1;3577;-1014;3626;-751;-189;-111;216
1889781;1;13;1;3577;-998;3594;-704;-174;-263;180
1889791;1;13;1;3577;-984;3594;-720;-70;-377;120
1889801;1;13;1;3577;-971;3583;-735;77;-459;70
1889811;1;13;1;3577;-939;3622;-770;190;-532;45
1889821;1;13;1;3577;-871;3692;-874;245;-591;86
1889831;1;13;1;3577;-824;3734;-949;286;-633;188
1889841;1;13;1;3577;-776;3803;-1079;311;-582;312
1889851;1;13;1;3577;-776;3809;-1168;361;-470;406
1889861;1;13;1;3577;-805;3803;-1201;431;-362;470
1889871;1;13;1;3577;-876;3778;-1176;490;-315;446
1889881;1;13;1;3577;-979;3831;-1071;513;-355;338
1889891;1;13;1;3577;-1072;3905;-962;497;-495;212
1889901;1;13;1;3577;-1107;4042;-888;428;-689;116
1889911;1;13;1;3577;-1207;4136;-854;377;-947;111
1889921;1;13;1;3577;-1282;4235;-835;398;-1227;184
1889931;1;13;1;3577;-1274;4291;-878;398;-1383;328
1889941;1;13;1;3577;-1253;4270;-916;333;-1388;527
1889951;1;13;1;3577;-1176;4149;-973;215;-1323;768
1889961;1;13;1;3577;-1019;3901;-1065;87;-1227;1008
1889971;1;13;1;3577;-878;3737;-1119;7;-1126;1088
1889981;1;13;1;3577;-669;3651;-1097;0;-982;968
1889991;1;13;1;3577;-526;3719;-1040;32;-846;729
1890001;1;13;1;3577;-487;3857;-1044;-44;-836;520
1890011;1;13;1;3577;-479;3919;-1031;-143;-878;460
1890021;1;13;1;3577;-519;3985;-1057;-237;-907;444
1890031;1;13;1;3577;-485;3998;-1139;-319;-854;441
1890041;1;13;1;3577;-451;3912;-1212;-365;-670;463
1890051;1;13;1;3577;-412;3851;-1285;-361;-378;509
1890061;1;13;1;3577;-366;3808;-1344;-355;-50;507
1890071;1;13;1;3577;-347;3799;-1348;-375;244;470
1890081;1;13;1;3577;-360;3788;-1285;-358;470;370
1890091;1;13;1;3577;-429;3840;-1215;-381;641;272
1890101;1;13;1;3577;-471;3856;-1096;-399;744;193
1890111;1;13;1;3577;-531;3848;-1013;-413;758;136
1890121;1;13;1;3577;-562;3833;-931;-428;712;125
1890131;1;13;1;3577;-582;3855;-892;-449;686;147
