timestamp;subject_id;activity;label;seq;ax;ay;az;gx;gy;gz
2366;2;11;1;0;990;3985;605;-47;379;25
2376;2;11;1;0;976;4001;615;-50;378;10
2386;2;11;1;0;1005;4010;638;-38;331;26
2396;2;11;1;0;999;3995;622;-1;297;34
2406;2;11;1;0;991;4003;608;-5;316;7
2416;2;11;1;0;964;4014;643;-17;291;11
2426;2;11;1;0;964;4020;629;-13;251;29
2436;2;11;1;0;976;4037;618;-24;219;20
2446;2;11;1;0;978;4038;583;-52;156;43
2456;2;11;1;0;976;4025;616;-54;106;40
2466;2;11;1;0;974;4022;609;-63;65;51
2476;2;11;1;0;1009;4021;611;-90;8;63
2486;2;11;1;0;1058;4009;600;-120;-25;39
2496;2;11;1;0;1053;4024;607;-125;-45;-9
2506;2;11;1;0;1004;4018;627;-122;-42;-44
2516;2;11;1;0;917;4024;675;-108;-15;-58
2526;2;11;1;0;886;4024;652;-92;-62;-4
2536;2;11;1;0;996;4004;537;-102;-130;31
2546;2;11;1;0;1117;4002;523;-96;-151;-37
2556;2;11;1;0;1101;4024;564;-120;-186;-113
2566;2;11;1;0;1010;4050;659;-161;-231;-143
2576;2;11;1;0;902;4042;691;-159;-265;-110
2586;2;11;1;0;844;4016;698;-152;-294;-25
2596;2;11;1;0;842;3989;646;-153;-319;54
2606;2;11;1;0;959;3995;619;-149;-365;117
2616;2;11;1;0;1089;3986;550;-108;-450;103
2626;2;11;1;0;1119;3999;537;-106;-445;-17
2636;2;11;1;0;1056;4033;601;-128;-449;-111
2646;2;11;1;0;943;4037;643;-160;-477;-110
2656;2;11;1;0;900;4007;631;-140;-509;-43
2666;2;11;1;0;939;3972;615;-123;-521;5
2676;2;11;1;0;1047;3978;574;-111;-521;13
2686;2;11;1;0;1098;3981;553;-124;-536;-23
2696;2;11;1;0;1093;4017;543;-138;-524;-111
2706;2;11;1;0;1030;4039;572;-179;-522;-167
2716;2;11;1;0;976;4013;609;-189;-544;-160
2726;2;11;1;0;914;4021;626;-199;-582;-102
2736;2;11;1;0;929;3987;617;-208;-603;-38
2746;2;11;1;0;1000;3999;597;-200;-636;-12
2756;2;11;1;0;1123;3988;553;-176;-697;-29
2766;2;11;1;0;1148;4014;534;-168;-664;-138
2776;2;11;1;0;1067;4038;586;-192;-647;-226
2786;2;11;1;0;983;4038;623;-216;-649;-223
2796;2;11;1;0;931;4031;622;-204;-654;-183
2806;2;11;1;0;929;4028;601;-219;-671;-105
2816;2;11;1;0;966;4003;577;-241;-691;-63
2826;2;11;1;0;1036;4003;602;-217;-755;-19
2836;2;11;1;0;1084;3997;563;-165;-816;-42
2846;2;11;1;0;1070;4006;572;-145;-822;-87
2856;2;11;1;0;1044;3981;512;-162;-814;-113
2865;2;11;1;1;1009;3961;531;-198;-743;-158
2875;2;11;1;1;973;3987;584;-208;-703;-148
2885;2;11;1;1;940;4005;667;-166;-730;-83
2895;2;11;1;1;961;4001;648;-112;-739;6
2905;2;11;1;1;1060;3974;567;-124;-757;64
2915;2;11;1;1;1172;3959;504;-128;-762;0
2925;2;11;1;1;1175;4007;456;-145;-766;-109
2935;2;11;1;1;1132;4004;480;-214;-731;-206
2945;2;11;1;1;1069;4008;498;-264;-724;-266
2955;2;11;1;1;972;4035;575;-274;-735;-259
2965;2;11;1;1;905;4044;634;-243;-784;-151
2975;2;11;1;1;924;3998;575;-213;-796;-55
2985;2;11;1;1;987;3975;525;-214;-784;1
2995;2;11;1;1;1043;3978;524;-275;-754;17
3005;2;11;1;1;1072;3990;548;-267;-751;-4
3015;2;11;1;1;1125;4014;531;-223;-744;-28
3025;2;11;1;1;1122;4023;530;-204;-668;-128
3035;2;11;1;1;1078;4035;564;-209;-635;-187
3045;2;11;1;1;1022;4011;566;-237;-635;-178
3055;2;11;1;1;999;4002;583;-219;-630;-141
3065;2;11;1;1;982;3984;564;-195;-650;-87
3075;2;11;1;1;1073;4011;547;-154;-693;-5
3085;2;11;1;1;1200;3959;412;-122;-722;-36
3095;2;11;1;1;1217;3935;378;-139;-549;-253
3105;2;11;1;1;1140;4015;512;-224;-433;-411
3115;2;11;1;1;973;4073;632;-319;-476;-367
3125;2;11;1;1;900;4043;568;-364;-489;-339
3135;2;11;1;1;907;4008;611;-266;-462;-159
3145;2;11;1;1;1001;3992;568;-256;-504;-52
3155;2;11;1;1;1080;3984;531;-270;-538;-14
3165;2;11;1;1;1147;3985;502;-186;-490;-100
3175;2;11;1;1;1138;3988;504;-160;-408;-203
3185;2;11;1;1;1048;3988;590;-160;-310;-267
3195;2;11;1;1;967;4015;630;-125;-288;-219
3205;2;11;1;1;936;4007;606;-98;-267;-119
3215;2;11;1;1;937;3997;589;-102;-224;-29
3225;2;11;1;1;998;4015;585;-95;-242;53
3235;2;11;1;1;1179;4041;531;-14;-340;93
3245;2;11;1;1;1269;4020;406;35;-432;42
3255;2;11;1;1;1252;4001;358;-22;-318;-170
3265;2;11;1;1;1137;4053;458;-138;-211;-319
3275;2;11;1;1;1007;4085;575;-220;-221;-310
3285;2;11;1;1;927;4063;613;-193;-259;-217
3295;2;11;1;1;895;4009;566;-147;-254;-135
3305;2;11;1;1;938;3992;565;-146;-247;-54
3315;2;11;1;1;975;3984;560;-120;-242;-15
3325;2;11;1;1;1042;4008;555;-85;-259;11
3335;2;11;1;1;1060;3990;547;-83;-264;-10
3345;2;11;1;1;1053;3997;530;-84;-237;-50
3355;2;11;1;1;1028;4005;567;-75;-216;-64
3365;2;11;1;2;1015;4013;579;-78;-238;-25
3375;2;11;1;2;1081;4002;525;-57;-294;13
3385;2;11;1;2;1191;3939;377;-54;-217;-91
3395;2;11;1;2;1173;3972;423;-87;-59;-292
3405;2;11;1;2;1064;4054;570;-177;-61;-345
3415;2;11;1;2;948;4068;634;-153;-134;-273
3425;2;11;1;2;888;4027;606;-89;-142;-187
3435;2;11;1;2;872;4021;588;-90;-132;-79
3445;2;11;1;2;916;4027;609;-91;-147;30
3455;2;11;1;2;1087;4026;532;-44;-216;83
3465;2;11;1;2;1224;4010;420;2;-254;23
3475;2;11;1;2;1254;3991;367;14;-160;-182
3485;2;11;1;2;1130;4043;479;-127;-76;-339
3495;2;11;1;2;966;4070;604;-224;-104;-323
3505;2;11;1;2;888;4044;607;-193;-141;-209
3515;2;11;1;2;853;3995;578;-150;-155;-76
3525;2;11;1;2;953;3975;540;-141;-205;40
3535;2;11;1;2;1027;3968;512;-118;-194;63
3545;2;11;1;2;1074;3999;499;-119;-145;-14
3555;2;11;1;2;1074;4002;495;-111;-105;-74
3565;2;11;1;2;1023;4020;555;-110;-87;-97
3575;2;11;1;2;973;4018;588;-127;-106;-60
3585;2;11;1;2;921;4014;595;-107;-112;1
3595;2;11;1;2;941;4035;591;-85;-130;79
3605;2;11;1;2;1018;4026;571;-81;-178;144
3615;2;11;1;2;1145;4022;543;-43;-242;143
3625;2;11;1;2;1224;3982;444;31;-224;23
3635;2;11;1;2;1162;3986;440;46;-52;-211
3645;2;11;1;2;1028;4056;547;-19;39;-318
3655;2;11;1;2;908;4084;628;-74;-2;-285
3665;2;11;1;2;841;4067;634;-50;-47;-173
3675;2;11;1;2;846;4042;598;-47;-88;-71
3685;2;11;1;2;877;4047;574;-66;-147;26
3695;2;11;1;2;915;4031;578;-59;-256;118
3705;2;11;1;2;952;4037;536;-63;-351;171
3715;2;11;1;2;974;4030;522;-69;-404;149
3725;2;11;1;2;989;4048;556;-89;-469;118
3735;2;11;1;2;960;4048;596;-147;-539;100
3745;2;11;1;2;923;4019;579;-137;-624;111
3755;2;11;1;2;934;3984;530;-109;-700;119
3765;2;11;1;2;914;3985;502;-90;-764;100
3775;2;11;1;2;923;4008;531;-89;-838;79
3785;2;11;1;2;909;4017;519;-106;-939;93
3795;2;11;1;2;955;4001;464;-173;-1009;66
3805;2;11;1;2;965;4016;462;-279;-1042;-41
3815;2;11;1;2;972;4054;501;-353;-1115;-83
3825;2;11;1;2;956;4039;512;-397;-1250;-102
3835;2;11;1;2;957;4028;486;-376;-1352;-149
3845;2;11;1;2;964;4074;530;-339;-1500;-158
3855;2;11;1;2;987;4120;554;-298;-1680;-140
3865;2;11;1;3;1030;4115;487;-200;-1844;-172
3875;2;11;1;3;1040;4089;346;-131;-1943;-255
3885;2;11;1;3;1044;4095;273;-199;-2025;-337
3895;2;11;1;3;1012;4085;275;-298;-2108;-414
3905;2;11;1;3;1006;4109;319;-415;-2206;-442
3915;2;11;1;3;1007;4109;389;-551;-2348;-433
3925;2;11;1;3;987;4093;445;-603;-2483;-417
3935;2;11;1;3;995;4088;469;-590;-2598;-405
3945;2;11;1;3;1026;4043;461;-562;-2697;-385
3955;2;11;1;3;1066;4012;449;-600;-2788;-370
3965;2;11;1;3;1107;3977;429;-653;-2837;-390
3975;2;11;1;3;1129;3969;447;-742;-2854;-450
3985;2;11;1;3;1080;4007;514;-777;-2894;-486
3995;2;11;1;3;1056;4048;559;-726;-2968;-461
4005;2;11;1;3;1048;4061;574;-688;-3031;-425
4015;2;11;1;3;1049;4068;534;-663;-3034;-424
4025;2;11;1;3;1083;4003;478;-710;-3020;-476
4035;2;11;1;3;1137;4051;445;-651;-2968;-636
4045;2;11;1;3;1108;4073;464;-653;-3012;-725
4055;2;11;1;3;1038;4101;542;-695;-3134;-738
4065;2;11;1;3;1046;4074;584;-699;-3229;-726
4075;2;11;1;3;1066;4060;638;-654;-3298;-738
4085;2;11;1;3;1129;4046;636;-642;-3386;-727
4095;2;11;1;3;1150;3995;577;-690;-3428;-805
4105;2;11;1;3;1130;3989;540;-642;-3488;-829
4115;2;11;1;3;1081;3965;404;-678;-3608;-821
4125;2;11;1;3;1074;3960;293;-830;-3668;-822
4135;2;11;1;3;1046;4020;362;-939;-3770;-760
4145;2;11;1;3;1061;4004;381;-1034;-3938;-670
4155;2;11;1;3;1101;3997;447;-1202;-4017;-633
4165;2;11;1;3;1158;3946;524;-1260;-4080;-712
4175;2;11;1;3;1224;3893;494;-1262;-4079;-817
4185;2;11;1;3;1222;3834;449;-1351;-4064;-984
4195;2;11;1;3;1188;3795;494;-1413;-4012;-1133
4205;2;11;1;3;1083;3837;471;-1482;-4040;-1301
4215;2;11;1;3;1067;3847;493;-1437;-4077;-1270
4225;2;11;1;3;1028;3879;417;-1476;-4018;-1469
4235;2;11;1;3;983;3856;465;-1492;-3886;-1574
4245;2;11;1;3;969;3872;522;-1619;-3847;-1686
4255;2;11;1;3;932;3936;625;-1720;-3817;-1691
4265;2;11;1;3;1063;3891;491;-1924;-3863;-1865
4275;2;11;1;3;968;4027;712;-1971;-3738;-1876
4285;2;11;1;3;987;4049;839;-1782;-3744;-1819
4295;2;11;1;3;1000;4016;835;-1661;-3670;-1866
4305;2;11;1;3;1037;3988;726;-1681;-3584;-1932
4315;2;11;1;3;1054;3955;769;-1700;-3437;-2106
4325;2;11;1;3;983;4019;823;-1609;-3382;-2139
4335;2;11;1;3;909;4009;886;-1459;-3406;-2198
4345;2;11;1;3;801;4200;955;-1177;-3549;-2003
4355;2;11;1;3;814;4197;876;-817;-3730;-1797
4365;2;11;1;4;706;4246;735;-592;-3790;-1616
4375;2;11;1;4;720;4199;520;-585;-3881;-1477
4385;2;11;1;4;645;4176;274;-799;-3780;-1371
4395;2;11;1;4;579;4206;361;-1039;-3657;-1217
4405;2;11;1;4;552;4241;609;-1308;-3684;-911
4415;2;11;1;4;652;4250;762;-1494;-3575;-761
4425;2;11;1;4;762;4273;884;-1540;-3449;-767
4435;2;11;1;4;886;4126;761;-1401;-3393;-796
4445;2;11;1;4;883;4027;593;-1354;-3337;-869
4455;2;11;1;4;782;3943;491;-1395;-3262;-981
4465;2;11;1;4;693;3930;513;-1302;-3153;-1086
4475;2;11;1;4;595;3927;534;-1133;-3097;-1107
4485;2;11;1;4;551;3889;533;-1023;-2937;-1165
4495;2;11;1;4;558;3924;548;-901;-2747;-1293
4505;2;11;1;4;637;3987;642;-884;-2544;-1416
4515;2;11;1;4;653;4075;801;-854;-2378;-1554
4525;2;11;1;4;579;4048;846;-643;-2159;-1917
4535;2;11;1;4;567;4197;837;-619;-1987;-1981
4545;2;11;1;4;513;4186;831;-625;-2188;-1791
4555;2;11;1;4;446;4114;695;-393;-2206;-1673
4565;2;11;1;4;400;4069;644;-114;-2066;-1860
4575;2;11;1;4;383;4112;556;-105;-2177;-1663
4585;2;11;1;4;436;4175;477;-160;-2374;-1397
4595;2;11;1;4;444;4248;530;-150;-2523;-1209
4605;2;11;1;4;478;4231;556;-87;-2662;-1069
4615;2;11;1;4;509;4201;573;-91;-2788;-942
4625;2;11;1;4;449;4116;612;67;-2818;-931
4635;2;11;1;4;422;3952;628;112;-2815;-747
4645;2;11;1;4;406;3863;630;75;-2696;-668
4655;2;11;1;4;428;3817;678;-10;-2481;-632
4665;2;11;1;4;463;3833;798;-101;-2368;-536
4675;2;11;1;4;465;3879;897;-142;-2387;-292
4685;2;11;1;4;421;3952;915;-193;-2378;-101
4695;2;11;1;4;383;3982;896;-314;-2323;44
4705;2;11;1;4;348;4027;831;-394;-2304;160
4715;2;11;1;4;310;4046;742;-427;-2265;237
4725;2;11;1;4;289;4040;644;-416;-2181;236
4735;2;11;1;4;242;4138;623;-417;-2091;257
4745;2;11;1;4;298;4230;626;-356;-2144;374
4755;2;11;1;4;371;4285;641;-193;-2288;492
4765;2;11;1;4;431;4225;523;-30;-2372;523
4775;2;11;1;4;532;4164;421;-106;-2268;383
4785;2;11;1;4;594;4069;354;-459;-2147;246
4795;2;11;1;4;773;4028;502;-607;-2102;136
4805;2;11;1;4;929;4048;688;-498;-2234;48
4815;2;11;1;4;950;4014;809;-349;-2374;-16
4825;2;11;1;4;888;3918;887;-224;-2540;-33
4835;2;11;1;4;742;3850;895;-139;-2582;-25
4845;2;11;1;4;671;3769;863;-108;-2548;25
4855;2;11;1;4;631;3716;777;-115;-2442;150
4865;2;11;1;5;670;3589;540;-176;-2025;52
4875;2;11;1;5;651;3667;575;-110;-1588;-91
4885;2;11;1;5;628;3887;642;-28;-1340;29
4895;2;11;1;5;638;3979;664;9;-1188;161
4905;2;11;1;5;691;4055;653;38;-977;227
4915;2;11;1;5;759;4138;648;48;-810;259
4925;2;11;1;5;794;4176;610;-25;-626;212
4935;2;11;1;5;768;4210;623;-88;-482;130
4945;2;11;1;5;697;4204;637;-71;-438;128
4955;2;11;1;5;622;4157;610;40;-381;140
4965;2;11;1;5;564;4099;560;125;-297;140
4975;2;11;1;5;504;4117;541;124;-179;138
4985;2;11;1;5;481;4109;590;35;-23;161
4995;2;11;1;5;506;4105;629;-11;84;190
5005;2;11;1;5;557;4124;677;-55;167;219
5015;2;11;1;5;551;4100;707;-57;214;223
5025;2;11;1;5;552;4039;748;-28;303;171
5035;2;11;1;5;543;4016;758;19;352;129
5045;2;11;1;5;590;3951;738;46;332;94
5055;2;11;1;5;613;3906;722;126;312;24
5065;2;11;1;5;599;3866;699;233;374;-132
5075;2;11;1;5;596;3932;696;459;386;-264
5085;2;11;1;5;566;3972;639;624;298;-313
5095;2;11;1;5;576;3992;591;754;247;-383
5105;2;11;1;5;557;4026;547;842;184;-437
5115;2;11;1;5;639;4061;502;896;116;-492
5125;2;11;1;5;694;4100;477;906;69;-587
5135;2;11;1;5;712;4101;523;863;0;-677
5145;2;11;1;5;699;4108;589;828;-65;-737
5155;2;11;1;5;686;4097;631;840;-114;-750
5165;2;11;1;5;661;4077;643;861;-119;-754
5175;2;11;1;5;638;4045;626;875;-109;-742
5185;2;11;1;5;612;4058;646;929;-101;-684
5195;2;11;1;5;585;4032;594;1017;-87;-589
5205;2;11;1;5;617;4053;554;1041;5;-541
5215;2;11;1;5;622;4106;489;1011;118;-519
5225;2;11;1;5;661;4158;498;964;156;-488
5235;2;11;1;5;727;4159;458;938;189;-513
5245;2;11;1;5;747;4195;476;909;230;-571
5255;2;11;1;5;694;4206;528;860;257;-609
5265;2;11;1;5;610;4181;540;880;291;-615
5275;2;11;1;5;550;4169;560;945;315;-552
5285;2;11;1;5;520;4135;555;1000;364;-463
5295;2;11;1;5;544;4139;585;1135;426;-411
5305;2;11;1;5;564;4142;544;1283;443;-359
5315;2;11;1;5;606;4155;471;1362;391;-319
5325;2;11;1;5;621;4109;353;1346;359;-324
5335;2;11;1;5;592;4090;324;1293;375;-386
5345;2;11;1;5;559;4095;356;1197;346;-411
5355;2;11;1;5;545;4062;415;1126;310;-419
10391;2;11;1;6;528;4045;501;1174;264;-425
10401;2;11;1;6;518;4053;504;1305;206;-415
10411;2;11;1;6;522;4028;527;1390;133;-388
10421;2;11;1;6;485;4035;556;1575;88;-407
10431;2;11;1;6;462;4065;519;1855;31;-440
10441;2;11;1;6;447;4129;445;2097;-47;-422
10451;2;11;1;6;423;4161;325;2169;-141;-362
10461;2;11;1;6;397;4174;251;2149;-261;-336
10471;2;11;1;6;361;4193;183;2187;-357;-339
10481;2;11;1;6;338;4215;87;2033;-513;-280
10491;2;11;1;6;371;4213;68;1806;-736;-191
10501;2;11;1;6;434;4193;60;1627;-945;-149
10511;2;11;1;6;470;4177;106;1552;-1161;-126
10521;2;11;1;6;521;4037;171;-325;-113;5
10531;2;11;1;6;547;4050;138;-223;-33;2
10541;2;11;1;6;368;4176;205;59;66;17
10551;2;11;1;6;367;4171;206;68;63;28
10561;2;11;1;6;367;4171;206;68;63;28
10571;2;11;1;6;368;4164;207;74;61;39
10581;2;11;1;6;368;4164;207;74;61;39
10591;2;11;1;6;368;4161;207;85;56;54
10601;2;11;1;6;368;4161;207;85;56;54
10611;2;11;1;6;369;4161;207;95;53;69
10621;2;11;1;6;369;4161;207;95;53;69
10631;2;11;1;6;370;4159;205;97;53;81
10641;2;11;1;6;370;4159;205;97;53;81
10651;2;11;1;6;375;4160;197;93;54;93
10661;2;11;1;6;379;4163;190;98;51;106
10671;2;11;1;6;379;4163;190;98;51;106
10681;2;11;1;6;384;4161;186;110;44;121
10691;2;11;1;6;384;4161;186;110;44;121
10701;2;11;1;6;393;4154;182;115;39;137
10711;2;11;1;6;393;4154;182;115;39;137
10721;2;11;1;6;401;4150;173;110;39;152
10731;2;11;1;6;401;4150;173;110;39;152
10741;2;11;1;6;411;4148;163;106;37;164
10751;2;11;1;6;411;4148;163;106;37;164
10761;2;11;1;6;424;4142;152;109;30;174
10771;2;11;1;6;424;4142;152;109;30;174
10781;2;11;1;6;438;4135;141;109;22;182
10791;2;11;1;6;438;4135;141;109;22;182
10801;2;11;1;6;451;4130;138;112;15;192
10811;2;11;1;6;451;4130;138;112;15;192
10821;2;11;1;6;466;4127;135;120;8;204
10831;2;11;1;6;466;4127;135;120;8;204
10841;2;11;1;6;483;4123;126;123;3;213
10851;2;11;1;6;567;4100;77;120;-22;221
10861;2;11;1;6;706;4043;-67;92;5;101
10871;2;11;1;6;681;4093;-60;-67;51;-83
10881;2;11;1;6;601;4155;50;-266;-7;-131
10890;2;11;1;7;522;4145;145;-315;-58;-124
10900;2;11;1;7;435;4124;188;-260;-57;-87
10910;2;11;1;7;427;4108;206;-235;-69;7
10920;2;11;1;7;464;4069;174;-190;-67;101
10930;2;11;1;7;577;4036;141;-129;-5;69
10940;2;11;1;7;652;4049;92;-83;46;-15
10950;2;11;1;7;653;4097;91;-120;69;-109
10960;2;11;1;7;577;4148;134;-145;52;-134
10970;2;11;1;7;491;4173;180;-105;5;-88
10980;2;11;1;7;457;4148;161;-80;-40;-17
10990;2;11;1;7;464;4131;114;-76;-11;22
11000;2;11;1;7;505;4120;65;-60;6;37
11010;2;11;1;7;549;4094;52;-116;40;5
11020;2;11;1;7;556;4114;81;-188;75;-27
11030;2;11;1;7;532;4131;141;-249;56;-32
11040;2;11;1;7;517;4148;171;-240;33;-16
11050;2;11;1;7;489;4107;173;-213;39;5
11060;2;11;1;7;497;4085;165;-185;52;9
11070;2;11;1;7;504;4084;200;-159;48;30
11080;2;11;1;7;512;4079;138;-101;93;-8
11090;2;11;1;7;552;4105;114;-52;94;-25
11100;2;11;1;7;549;4114;93;-87;52;-40
11110;2;11;1;7;561;4132;81;-158;-25;-49
11120;2;11;1;7;510;4111;73;-211;-42;-88
11130;2;11;1;7;476;4135;83;-263;-66;-99
11140;2;11;1;7;450;4118;64;-322;-90;-81
11150;2;11;1;7;453;4114;95;-359;-104;-61
11160;2;11;1;7;466;4103;98;-366;-133;-36
11170;2;11;1;7;485;4098;124;-381;-171;9
11180;2;11;1;7;521;4097;133;-405;-211;45
11190;2;11;1;7;544;4080;185;-392;-250;76
11200;2;11;1;7;594;4085;215;-337;-240;50
11210;2;11;1;7;612;4098;243;-261;-224;10
11220;2;11;1;7;612;4111;233;-213;-219;-21
11230;2;11;1;7;565;4109;229;-220;-222;-14
11240;2;11;1;7;558;4116;227;-228;-210;5
11250;2;11;1;7;544;4110;243;-224;-200;40
11260;2;11;1;7;545;4098;217;-261;-123;35
11270;2;11;1;7;569;4071;240;-315;-2;-24
11280;2;11;1;7;548;4110;235;-359;16;-31
11290;2;11;1;7;579;4073;167;-386;-27;0
11300;2;11;1;7;618;4079;92;-436;-39;-32
11310;2;11;1;7;631;4116;118;-568;-48;-94
11320;2;11;1;7;565;4161;230;-618;-89;-142
11330;2;11;1;7;528;4142;263;-514;-128;-143
11340;2;11;1;7;512;4111;282;-372;-98;-179
11350;2;11;1;7;480;4130;278;-132;-146;-188
11360;2;11;1;7;460;4122;218;117;-201;-184
11370;2;11;1;7;461;4168;200;217;-257;-204
11380;2;11;1;7;478;4213;201;189;-393;-178
11390;2;11;1;8;463;4233;228;204;-573;-155
11400;2;11;1;8;460;4186;125;285;-754;-155
11410;2;11;1;8;424;4169;60;141;-910;-162
11420;2;11;1;8;403;4106;83;-147;-1077;-125
11430;2;11;1;8;408;4056;177;-349;-1200;-106
11440;2;11;1;8;463;4022;211;-384;-1320;-100
11450;2;11;1;8;519;4020;282;-429;-1417;-135
11460;2;11;1;8;503;4041;398;-430;-1544;-168
11470;2;11;1;8;468;4073;466;-272;-1683;-157
11480;2;11;1;8;427;4120;424;12;-1780;-174
11490;2;11;1;8;400;4153;351;234;-1894;-154
11500;2;11;1;8;430;4139;256;290;-2003;-122
11510;2;11;1;8;425;4144;186;347;-2081;-124
11520;2;11;1;8;443;4136;117;348;-2146;-134
11530;2;11;1;8;445;4169;106;245;-2239;-104
11540;2;11;1;8;483;4192;110;116;-2348;-52
11550;2;11;1;8;510;4201;117;-7;-2443;9
11560;2;11;1;8;518;4186;155;-82;-2524;77
11570;2;11;1;8;560;4150;135;-128;-2520;126
11580;2;11;1;8;591;4131;150;-187;-2485;143
11590;2;11;1;8;629;4123;164;-233;-2447;148
11600;2;11;1;8;658;4130;166;-215;-2443;171
11610;2;11;1;8;672;4123;148;-160;-2448;202
11620;2;11;1;8;654;4090;48;-136;-2424;220
11630;2;11;1;8;653;4082;-7;-226;-2309;175
11640;2;11;1;8;640;4110;2;-349;-2201;150
11650;2;11;1;8;667;4140;55;-473;-2115;156
11660;2;11;1;8;662;4161;106;-527;-2034;177
11670;2;11;1;8;671;4139;148;-456;-1940;168
11680;2;11;1;8;680;4134;121;-347;-1857;171
11690;2;11;1;8;693;4095;63;-298;-1748;153
11700;2;11;1;8;699;4103;13;-296;-1681;147
11710;2;11;1;8;690;4087;-22;-379;-1634;173
11720;2;11;1;8;719;4089;-23;-512;-1574;199
11730;2;11;1;8;721;4085;-13;-662;-1531;255
11740;2;11;1;8;753;4058;9;-806;-1433;307
11750;2;11;1;8;852;4042;55;-918;-1320;326
11760;2;11;1;8;927;4111;146;-946;-1143;194
11770;2;11;1;8;959;4114;342;-656;-996;21
11780;2;11;1;8;936;4059;365;-148;-860;-166
11790;2;11;1;8;876;4021;316;237;-706;-313
11800;2;11;1;8;801;3977;298;655;-506;-435
11810;2;11;1;8;749;3987;242;1110;-338;-461
11820;2;11;1;8;687;3990;129;1425;-168;-444
11830;2;11;1;8;629;4022;-11;1531;75;-437
11840;2;11;1;8;578;4108;-141;1373;374;-450
11850;2;11;1;8;437;4241;-130;937;643;-332
11860;2;11;1;8;470;4278;-88;673;768;-166
11870;2;11;1;8;517;4350;-85;442;907;-65
11880;2;11;1;8;485;4389;-65;155;1015;-39
11890;2;11;1;9;478;4342;-35;-122;1101;-48
11900;2;11;1;9;492;4319;7;-362;1137;-55
11910;2;11;1;9;520;4307;103;-665;1069;-60
11920;2;11;1;9;545;4237;283;-720;978;-81
11930;2;11;1;9;613;4169;369;-587;851;-119
11940;2;11;1;9;716;4100;433;-328;632;-202
11950;2;11;1;9;755;4059;348;-109;373;-312
11960;2;11;1;9;802;3997;343;31;165;-494
11970;2;11;1;9;768;3945;370;333;-67;-668
11980;2;11;1;9;699;3854;301;653;-302;-742
11990;2;11;1;9;631;3804;284;783;-448;-743
12000;2;11;1;9;626;3838;262;743;-508;-740
12010;2;11;1;9;591;3929;316;663;-488;-714
12020;2;11;1;9;622;4000;262;623;-389;-789
12030;2;11;1;9;542;4060;180;530;-360;-859
12040;2;11;1;9;460;4063;27;284;-319;-931
12050;2;11;1;9;416;4097;27;-120;-259;-947
12060;2;11;1;9;410;4105;117;-507;-260;-878
12070;2;11;1;9;369;4137;210;-704;-276;-734
12080;2;11;1;9;365;4178;267;-719;-286;-552
12090;2;11;1;9;289;4251;333;-670;-207;-408
12100;2;11;1;9;308;4263;371;-583;-151;-267
12110;2;11;1;9;304;4217;339;-457;-137;-134
12120;2;11;1;9;306;4105;226;-305;-120;-73
12130;2;11;1;9;321;4107;249;-220;-169;37
12140;2;11;1;9;305;4097;275;-55;-214;89
12150;2;11;1;9;232;4085;279;34;-268;135
12160;2;11;1;9;156;4060;371;-103;-419;303
12170;2;11;1;9;156;4007;448;-83;-516;444
12180;2;11;1;9;127;3979;477;-20;-551;519
12190;2;11;1;9;165;3911;556;-45;-579;599
12200;2;11;1;9;244;3975;692;-24;-545;571
12210;2;11;1;9;277;4057;832;11;-565;508
12220;2;11;1;9;234;4072;946;107;-647;470
12230;2;11;1;9;232;3992;915;281;-840;489
12240;2;11;1;9;241;3922;870;226;-1033;508
12250;2;11;1;9;222;3855;919;140;-1171;516
12260;2;11;1;9;175;3837;1003;260;-1177;471
12270;2;11;1;9;145;3791;1017;506;-1140;408
12280;2;11;1;9;175;3911;1106;698;-1137;362
12290;2;11;1;9;170;4085;1257;1134;-1257;325
12300;2;11;1;9;64;4079;1199;1555;-1505;373
12310;2;11;1;9;13;4020;1059;1710;-1872;533
12320;2;11;1;9;-5;3938;991;1617;-2257;697
12330;2;11;1;9;-31;3935;1157;1358;-2493;810
12340;2;11;1;9;-22;3895;1387;892;-2490;868
12350;2;11;1;9;180;3989;1723;881;-2192;878
12360;2;11;1;9;250;3964;1658;741;-2088;678
12370;2;11;1;9;248;3878;1903;713;-2069;511
12380;2;11;1;9;149;3795;1975;1210;-1970;342
12390;2;11;1;10;28;3708;1779;1555;-1840;224
12400;2;11;1;10;-41;3524;1431;1696;-1714;174
12410;2;11;1;10;-137;3243;1004;1828;-1409;22
12420;2;11;1;10;-164;3160;791;2102;-1165;-147
12430;2;11;1;10;-208;3054;569;2931;-1353;-93
12440;2;11;1;10;-245;2846;357;3909;-1848;81
12450;2;11;1;10;-198;2895;107;4346;-2667;477
12460;2;11;1;10;-13;3093;-11;4384;-3444;797
12470;2;11;1;10;385;3329;135;4593;-3883;761
12480;2;11;1;10;672;3642;191;4830;-4170;365
12490;2;11;1;10;635;3822;240;5105;-4218;-173
12500;2;11;1;10;550;3992;109;5734;-3999;-711
12510;2;11;1;10;504;4086;-263;6448;-3868;-1164
12520;2;11;1;10;389;4153;-668;7283;-4088;-1374
12530;2;11;1;10;267;4258;-1107;8134;-4600;-1154
12540;2;11;1;10;451;4373;-1450;8532;-5113;-647
12550;2;11;1;10;896;4520;-1594;8785;-5336;-233
12560;2;11;1;10;1487;4720;-1646;8569;-5282;-57
12570;2;11;1;10;2061;4832;-1628;8175;-5076;-15
12580;2;11;1;10;2378;5025;-1726;7787;-5029;-4
12590;2;11;1;10;2385;5240;-1649;7308;-5219;225
12600;2;11;1;10;2130;5488;-1403;7120;-5339;599
12610;2;11;1;10;1887;5346;-1258;7011;-4850;676
12620;2;11;1;10;1654;5191;-1090;6774;-3950;447
12630;2;11;1;10;1374;5609;-981;7045;-2934;263
12640;2;11;1;10;1161;5530;-1203;7254;-2079;311
12650;2;11;1;10;1022;5574;-1853;7560;-1167;267
12660;2;11;1;10;829;5516;-2410;7711;-270;43
12670;2;11;1;10;641;5468;-2742;7888;345;-120
12680;2;11;1;10;572;5208;-2839;7870;697;-345
12690;2;11;1;10;423;4824;-2583;7956;762;-552
12700;2;11;1;10;185;4089;-2387;8288;539;-603
12710;2;11;1;10;41;3179;-2321;8366;271;-624
12720;2;11;1;10;-285;2422;-2159;8351;48;-688
12730;2;11;1;10;-570;1882;-1946;8359;55;-903
12740;2;11;1;10;-625;1784;-1572;8353;55;-1172
12750;2;11;1;10;-521;2037;-1268;8182;16;-1443
12760;2;11;1;10;-5;2597;-710;7616;-135;-2056
12770;2;11;1;10;479;2363;88;7459;-704;-2412
12780;2;11;1;10;583;2163;794;8043;-1589;-2498
12790;2;11;1;10;459;2070;1035;8328;-2274;-2769
12800;2;11;1;10;74;1906;1000;7764;-2615;-2837
12810;2;11;1;10;-349;1615;750;6276;-2539;-2827
12820;2;11;1;10;-863;2076;888;4086;-1869;-3222
12830;2;11;1;10;-944;2218;943;2090;-1121;-3270
12840;2;11;1;10;-658;2641;1134;1050;-376;-3700
12850;2;11;1;10;-587;2591;1096;1784;-828;-3079
12860;2;11;1;10;-542;2132;-232;2009;-1826;-1664
12870;2;11;1;10;-586;1442;-2132;458;-2593;598
12880;2;11;1;10;2115;-477;-4334;-3329;-4083;2738
12890;2;11;1;11;3731;-1138;-4966;-7165;-4001;-218
12900;2;11;1;11;1975;1896;-2969;-3445;-4427;-1678
12910;2;11;1;11;-177;3770;-2769;1118;-6077;312
12920;2;11;1;11;-1446;3350;-3635;4632;-5568;2279
12930;2;11;1;11;-1374;3793;-4834;6358;-2769;3038
12940;2;11;1;11;-174;3655;-7430;2962;506;1304
12950;2;11;1;11;92;4122;-8400;-494;1618;-1172
12960;2;11;1;11;-227;4916;-8297;-904;516;-2144
12970;2;11;1;11;-1062;5291;-7831;2124;-1781;-1319
12980;2;11;1;11;-1740;4665;-7179;5639;-2599;-625
12990;2;11;1;11;-1744;4496;-5698;7460;-2190;631
13000;2;11;1;11;-1166;4143;-5942;6985;-1735;1774
13010;2;11;1;11;-317;3289;-6454;4305;-1185;1880
13020;2;11;1;11;130;3259;-6230;1961;-910;989
13030;2;11;1;11;33;3887;-5550;1293;-1071;38
13040;2;11;1;11;-316;4613;-4574;1530;-1268;-595
13050;2;11;1;11;-448;4815;-3774;2263;-1046;-962
13060;2;11;1;11;-329;4695;-3252;3057;-535;-1107
13070;2;11;1;11;105;4407;-3320;2979;96;-1472
13080;2;11;1;11;199;4327;-3157;2227;900;-1979
13090;2;11;1;11;407;4100;-3468;926;1319;-2364
13100;2;11;1;11;-177;3866;-3485;-1178;1545;-2271
13110;2;11;1;11;-585;3493;-3307;-2599;1694;-1668
13120;2;11;1;11;-813;3323;-3203;-2970;1890;-1093
13130;2;11;1;11;-797;3361;-2848;-2775;2114;-514
13140;2;11;1;11;-626;3405;-2261;-2856;2057;304
13150;2;11;1;11;-425;3299;-1685;-3234;2025;1021
13160;2;11;1;11;-262;3074;-1168;-3554;2179;1400
13170;2;11;1;11;-202;2814;-811;-4089;2473;1598
13180;2;11;1;11;-108;2542;-468;-4768;2740;1778
13190;2;11;1;11;-75;2351;-171;-5399;2760;2024
13200;2;11;1;11;-47;2124;43;-5649;2597;2525
13210;2;11;1;11;-222;1728;-48;-5851;2592;2957
13220;2;11;1;11;-433;1439;-45;-5956;2886;3041
13230;2;11;1;11;-373;1103;-196;-5525;3046;3173
13240;2;11;1;11;-221;914;-483;-5218;3021;3178
13250;2;11;1;11;-143;772;-520;-4863;3038;3067
13260;2;11;1;11;-44;370;-668;-4070;3436;2913
13270;2;11;1;11;215;-222;-1390;-3930;4282;2396
13280;2;11;1;11;-209;-694;-3300;-6753;5431;1655
13290;2;11;1;11;-661;-1018;-4316;-9993;5105;1573
13300;2;11;1;11;-856;-573;-5420;-12821;3126;3050
13310;2;11;1;11;540;539;-4293;-8936;1009;4251
13320;2;11;1;11;1329;4856;-2632;-1759;1139;1523
13330;2;11;1;11;1541;11501;-6264;-623;-41;-2757
13340;2;11;1;11;1295;7523;-8524;-9314;-1390;-3953
13350;2;11;1;11;259;4701;-7771;-13497;-3945;-1453
13360;2;11;1;11;255;4324;-8152;-9854;-4924;1024
13370;2;11;1;11;-40;4276;-8700;-6035;-4439;2117
13380;2;11;1;11;-492;4483;-6220;-5042;-3272;2397
13390;2;11;1;12;-306;5767;-3360;-472;-1215;2568
13400;2;11;1;12;689;5338;-3461;1743;-143;2796
13410;2;11;1;12;2259;4060;-4322;207;401;2518
13420;2;11;1;12;3333;3245;-5150;-2673;664;1123
13430;2;11;1;12;3340;3155;-4922;-4731;622;-289
13440;2;11;1;12;2242;3855;-3939;-4584;345;-1090
13450;2;11;1;12;1293;4249;-3261;-3638;458;-1446
13460;2;11;1;12;541;4520;-2710;-2900;921;-1538
13470;2;11;1;12;225;4543;-2154;-2603;1573;-1502
13480;2;11;1;12;144;4423;-1694;-2353;2012;-1341
13490;2;11;1;12;298;4195;-1495;-2158;2106;-937
13500;2;11;1;12;540;3833;-1600;-2176;2101;-789
13510;2;11;1;12;611;3582;-1579;-2928;1975;-904
13520;2;11;1;12;525;3417;-1317;-3692;1686;-830
13530;2;11;1;12;440;3106;-1123;-3911;1363;-571
13540;2;11;1;12;405;2899;-901;-3930;1071;-439
13550;2;11;1;12;337;2707;-675;-3922;808;-280
13560;2;11;1;12;332;2598;-511;-3914;470;-121
13570;2;11;1;12;339;2361;-428;-3823;265;-24
13580;2;11;1;12;282;2166;-373;-3980;169;-205
13590;2;11;1;12;267;1996;-315;-4228;60;-440
13600;2;11;1;12;316;1779;-256;-4436;-70;-708
13610;2;11;1;12;332;1700;-333;-4601;-247;-905
13620;2;11;1;12;275;1659;-477;-4880;-476;-830
13630;2;11;1;12;123;1512;-439;-5307;-619;-579
13640;2;11;1;12;60;1200;-411;-5593;-539;-248
13650;2;11;1;12;-19;1152;-242;-6072;-111;118
13660;2;11;1;12;141;1183;-693;-6629;451;790
13670;2;11;1;12;737;636;-1841;-8015;1143;951
13680;2;11;1;12;1753;706;-2327;-10179;1558;511
13690;2;11;1;12;2066;1960;-2409;-10031;2747;-527
13700;2;11;1;12;891;3474;-3252;-7715;2752;-2378
13710;2;11;1;12;-600;5671;-3631;-6527;1661;-1780
13720;2;11;1;12;-1388;6094;-4151;-5137;46;912
13730;2;11;1;12;-1674;6441;-3830;22;27;2799
13740;2;11;1;12;-1428;7083;-4958;6299;1352;3081
13750;2;11;1;12;-430;7398;-6663;5498;3115;2786
13760;2;11;1;12;823;8262;-5727;-748;4687;1788
13770;2;11;1;12;1709;8974;-3222;-3900;5202;385
13780;2;11;1;12;1944;8756;-2015;-1834;5222;-542
13790;2;11;1;12;1931;7134;-2732;105;5332;-1095
13800;2;11;1;12;1749;5279;-3154;-56;5609;-2008
13810;2;11;1;12;1440;4167;-3127;-161;6012;-2920
13820;2;11;1;12;999;3739;-3162;251;6248;-3681
13830;2;11;1;12;391;3540;-3268;410;6226;-3872
13840;2;11;1;12;-28;3441;-3294;72;6052;-3392
13850;2;11;1;12;-110;3364;-3019;-467;5812;-2756
13860;2;11;1;12;112;3582;-2494;-307;5631;-2165
13870;2;11;1;12;377;3576;-2112;229;5518;-1710
13880;2;11;1;12;633;3520;-1844;179;5672;-1689
