timestamp;subject_id;activity;label;seq;ax;ay;az;gx;gy;gz
2365;2;11;1;0;657;4267;531;-344;-721;-392
2375;2;11;1;0;561;4219;444;-185;-833;-301
2385;2;11;1;0;698;4141;274;-163;-824;-340
2395;2;11;1;0;595;4123;379;-310;-857;-324
2405;2;11;1;0;642;4071;351;-403;-839;-319
2415;2;11;1;0;535;4047;468;-439;-858;-258
2425;2;11;1;0;535;4033;528;-442;-775;-204
2435;2;11;1;0;536;3979;589;-351;-687;-154
2445;2;11;1;0;599;3983;608;-223;-584;-153
2455;2;11;1;0;649;3958;674;-158;-481;-215
2465;2;11;1;0;732;3957;670;-62;-491;-226
2475;2;11;1;0;694;3990;659;44;-477;-302
2485;2;11;1;0;691;3990;587;111;-537;-328
2495;2;11;1;0;642;4007;547;158;-547;-347
2505;2;11;1;0;617;3993;525;175;-578;-345
2515;2;11;1;0;697;4029;455;142;-667;-303
2525;2;11;1;0;702;4031;519;56;-737;-290
2535;2;11;1;0;645;4114;603;-21;-677;-399
2545;2;11;1;0;682;4097;534;39;-796;-332
2555;2;11;1;0;598;4108;548;-50;-851;-310
2565;2;11;1;0;586;4056;506;-18;-799;-273
2575;2;11;1;0;601;4063;526;8;-789;-214
2585;2;11;1;0;635;4090;474;-15;-797;-179
2595;2;11;1;0;685;4086;441;-112;-810;-181
2605;2;11;1;0;707;4090;489;-227;-760;-188
2615;2;11;1;0;676;4086;501;-261;-724;-207
2625;2;11;1;0;670;4089;458;-347;-748;-192
2635;2;11;1;0;646;4088;480;-397;-705;-175
2645;2;11;1;0;680;4090;444;-380;-667;-196
2655;2;11;1;0;685;4037;456;-476;-654;-219
2665;2;11;1;0;658;4096;539;-416;-703;-194
2675;2;11;1;0;626;4069;534;-253;-727;-149
2685;2;11;1;0;657;4020;440;-192;-741;-124
2695;2;11;1;0;761;4038;443;-143;-770;-129
2705;2;11;1;0;772;4021;485;-87;-819;-163
2715;2;11;1;0;800;4037;528;15;-802;-228
2725;2;11;1;0;751;4048;553;89;-802;-232
2735;2;11;1;0;728;4064;559;81;-741;-240
2745;2;11;1;0;678;4041;603;65;-678;-226
2755;2;11;1;0;736;4027;499;96;-651;-169
2765;2;11;1;0;729;4046;441;48;-633;-149
2775;2;11;1;0;733;4045;430;6;-608;-148
2785;2;11;1;0;772;4061;473;-53;-574;-117
2795;2;11;1;0;755;4079;486;-125;-559;-69
2805;2;11;1;0;793;4043;533;-123;-532;-42
2815;2;11;1;0;792;4024;500;-153;-461;-58
2825;2;11;1;0;771;4054;513;-237;-407;-75
2835;2;11;1;0;711;4071;559;-307;-365;-54
2845;2;11;1;0;709;4083;574;-322;-330;-15
2855;2;11;1;0;707;4070;549;-322;-302;19
2865;2;11;1;1;690;4063;552;-301;-268;42
2875;2;11;1;1;678;4061;567;-317;-228;63
2885;2;11;1;1;658;4023;585;-324;-184;106
2895;2;11;1;1;661;3991;587;-295;-143;165
2905;2;11;1;1;676;3976;582;-284;-85;212
2915;2;11;1;1;669;3982;595;-253;-34;255
2925;2;11;1;1;683;3985;611;-265;-2;296
2935;2;11;1;1;692;4014;621;-285;46;321
2945;2;11;1;1;691;4021;649;-297;95;318
2955;2;11;1;1;675;4035;608;-310;110;304
2965;2;11;1;1;644;4026;593;-321;124;273
2975;2;11;1;1;616;4028;610;-283;145;237
2985;2;11;1;1;586;4040;603;-188;152;228
2995;2;11;1;1;554;4022;637;-78;167;230
3005;2;11;1;1;580;4047;646;27;152;282
3015;2;11;1;1;632;4024;606;160;141;289
3025;2;11;1;1;675;4020;594;223;167;251
3035;2;11;1;1;724;4031;572;257;160;200
3045;2;11;1;1;711;4075;529;253;136;154
3055;2;11;1;1;704;4089;501;162;102;121
3065;2;11;1;1;690;4125;496;130;77;70
3075;2;11;1;1;671;4143;468;137;37;25
3085;2;11;1;1;674;4154;439;152;-12;-27
3095;2;11;1;1;667;4166;460;180;-66;-68
3105;2;11;1;1;646;4178;434;239;-136;-56
3115;2;11;1;1;684;4211;463;252;-196;-42
3125;2;11;1;1;709;4194;431;262;-247;-53
3135;2;11;1;1;808;4144;358;209;-235;-164
3145;2;11;1;1;811;4134;355;98;-222;-274
3155;2;11;1;1;789;4100;400;22;-197;-329
3165;2;11;1;1;729;4089;439;-49;-176;-317
3175;2;11;1;1;707;4055;491;-68;-137;-242
3185;2;11;1;1;725;4032;467;-72;-90;-174
3195;2;11;1;1;797;3999;468;-71;-16;-173
3205;2;11;1;1;842;3963;471;-52;47;-201
3215;2;11;1;1;816;3987;515;-58;147;-237
3225;2;11;1;1;760;3981;564;-67;228;-208
3235;2;11;1;1;653;4014;610;-19;307;-143
3245;2;11;1;1;634;4027;624;62;394;-28
3255;2;11;1;1;682;4054;550;140;453;58
3265;2;11;1;1;774;4045;502;186;480;81
3275;2;11;1;1;813;4062;455;202;536;-13
3285;2;11;1;1;718;4079;459;109;596;-81
3295;2;11;1;1;617;4103;493;32;644;-43
3305;2;11;1;1;574;4088;543;1;697;40
3315;2;11;1;1;563;4121;542;-15;750;117
3325;2;11;1;1;614;4116;549;25;775;199
3335;2;11;1;1;731;4093;484;56;778;192
3345;2;11;1;1;758;4111;475;53;778;120
3355;2;11;1;1;752;4109;464;13;756;42
3365;2;11;1;2;687;4102;461;-8;782;-45
3375;2;11;1;2;612;4097;504;-25;797;-68
3385;2;11;1;2;567;4100;514;5;807;-12
3395;2;11;1;2;568;4095;493;50;809;57
3405;2;11;1;2;614;4098;497;77;807;122
3415;2;11;1;2;710;4077;462;139;758;161
3425;2;11;1;2;841;4050;380;202;704;85
3435;2;11;1;2;818;4091;342;158;638;-14
3445;2;11;1;2;765;4090;372;71;594;-83
3455;2;11;1;2;695;4058;411;77;604;-135
3465;2;11;1;2;661;4066;458;92;627;-132
3475;2;11;1;2;651;4061;491;74;626;-64
3485;2;11;1;2;663;4055;510;123;640;4
3495;2;11;1;2;691;4059;554;184;648;60
3505;2;11;1;2;704;4077;536;242;656;99
3515;2;11;1;2;762;4083;503;320;623;115
3525;2;11;1;2;804;4044;388;385;624;40
3535;2;11;1;2;792;4055;338;303;593;-73
3545;2;11;1;2;685;4085;375;209;539;-73
3555;2;11;1;2;612;4099;450;174;491;-41
3565;2;11;1;2;572;4085;446;142;499;28
3575;2;11;1;2;577;4078;440;82;534;72
3585;2;11;1;2;603;4103;464;48;530;127
3595;2;11;1;2;684;4069;439;37;489;149
3605;2;11;1;2;722;4071;363;-5;458;96
3615;2;11;1;2;717;4082;356;-96;382;30
3625;2;11;1;2;663;4106;406;-175;295;1
3635;2;11;1;2;571;4105;413;-183;258;-38
3645;2;11;1;2;548;4092;450;-156;227;-11
3655;2;11;1;2;553;4076;430;-151;190;4
3665;2;11;1;2;590;4059;420;-166;141;16
3675;2;11;1;2;587;4067;401;-173;82;24
3685;2;11;1;2;593;4072;428;-163;26;-1
3695;2;11;1;2;597;4088;442;-149;-24;-33
3705;2;11;1;2;590;4077;456;-154;-67;-61
3715;2;11;1;2;582;4077;471;-102;-115;-65
3725;2;11;1;2;595;4072;436;-53;-155;-58
3735;2;11;1;2;618;4065;418;-55;-183;-84
3745;2;11;1;2;613;4055;441;-67;-191;-95
3755;2;11;1;2;609;4070;465;-32;-195;-104
3765;2;11;1;2;594;4083;479;1;-198;-93
3775;2;11;1;2;704;4073;421;39;-239;-101
3785;2;11;1;2;739;4073;372;26;-253;-190
3795;2;11;1;2;693;4089;376;-75;-260;-269
3805;2;11;1;2;615;4112;439;-115;-227;-313
3815;2;11;1;2;531;4115;468;-91;-205;-290
3825;2;11;1;2;511;4113;463;-52;-176;-212
3835;2;11;1;2;532;4119;482;16;-149;-131
3845;2;11;1;2;611;4116;459;78;-171;-69
3855;2;11;1;2;692;4087;397;140;-219;-79
3865;2;11;1;3;733;4068;364;130;-206;-203
3875;2;11;1;3;655;4097;349;34;-181;-301
3885;2;11;1;3;562;4102;386;-62;-163;-294
3895;2;11;1;3;521;4103;432;-80;-147;-231
3905;2;11;1;3;523;4102;461;-48;-129;-164
3915;2;11;1;3;547;4097;467;-34;-104;-96
3925;2;11;1;3;599;4088;438;20;-112;-49
3935;2;11;1;3;715;4079;383;67;-127;-88
3945;2;11;1;3;732;4071;343;47;-174;-178
3955;2;11;1;3;683;4091;385;5;-192;-259
3965;2;11;1;3;587;4091;403;-2;-195;-291
3975;2;11;1;3;547;4097;426;1;-171;-270
3985;2;11;1;3;516;4117;463;26;-151;-207
3995;2;11;1;3;531;4119;474;67;-116;-146
4005;2;11;1;3;599;4097;453;112;-107;-100
4015;2;11;1;3;669;4094;377;116;-86;-152
4025;2;11;1;3;654;4113;382;51;-78;-196
4035;2;11;1;3;625;4089;406;17;-74;-205
4045;2;11;1;3;566;4088;430;47;-28;-201
4055;2;11;1;3;552;4067;457;116;8;-137
4065;2;11;1;3;508;4122;469;136;40;-49
4075;2;11;1;3;627;4099;454;244;62;44
4085;2;11;1;3;785;4087;336;315;32;38
4095;2;11;1;3;879;4074;247;176;20;-117
4105;2;11;1;3;810;4105;276;-107;12;-259
4115;2;11;1;3;686;4115;365;-249;39;-347
4125;2;11;1;3;551;4138;408;-260;94;-356
4135;2;11;1;3;480;4109;427;-315;144;-233
4145;2;11;1;3;477;4122;474;-282;202;-153
4155;2;11;1;3;521;4109;467;-197;217;-37
4165;2;11;1;3;574;4072;431;-168;205;67
4175;2;11;1;3;677;4046;355;-138;212;71
4185;2;11;1;3;707;4058;313;-175;225;1
4195;2;11;1;3;682;4082;355;-278;255;-54
4205;2;11;1;3;614;4089;425;-337;271;-42
4215;2;11;1;3;562;4105;462;-314;301;4
4225;2;11;1;3;546;4106;441;-267;342;66
4235;2;11;1;3;569;4116;428;-209;381;141
4245;2;11;1;3;750;4062;369;-194;344;214
4255;2;11;1;3;814;4037;294;-215;344;112
4265;2;11;1;3;776;4073;318;-335;357;-29
4275;2;11;1;3;631;4089;401;-422;358;-66
4285;2;11;1;3;526;4104;463;-418;400;-45
4295;2;11;1;3;472;4103;483;-329;455;24
4305;2;11;1;3;486;4097;455;-243;520;119
4315;2;11;1;3;577;4085;435;-184;565;165
4325;2;11;1;3;628;4074;426;-80;579;150
4335;2;11;1;3;635;4107;419;-31;599;132
4345;2;11;1;3;589;4085;435;-9;621;136
4355;2;11;1;3;576;4072;422;27;671;157
4365;2;11;1;4;566;4067;434;46;722;182
4375;2;11;1;4;660;4080;434;56;740;212
4385;2;11;1;4;754;4055;367;100;705;216
4395;2;11;1;4;790;4010;293;62;734;78
4405;2;11;1;4;704;4055;320;-66;740;-20
4415;2;11;1;4;609;4075;414;-162;759;-47
4425;2;11;1;4;549;4095;485;-109;808;-37
4435;2;11;1;4;508;4111;490;-15;859;28
4445;2;11;1;4;524;4124;487;60;898;90
4455;2;11;1;4;561;4105;454;103;930;140
4465;2;11;1;4;659;4120;410;161;923;182
4475;2;11;1;4;739;4086;282;145;894;147
4485;2;11;1;4;771;4087;269;0;921;35
4495;2;11;1;4;677;4158;348;-169;924;-20
4505;2;11;1;4;627;4128;383;-219;932;-5
4515;2;11;1;4;582;4111;395;-213;964;23
4525;2;11;1;4;582;4093;413;-186;981;80
4535;2;11;1;4;602;4089;441;-145;971;141
4545;2;11;1;4;604;4108;430;-83;927;210
4555;2;11;1;4;668;4059;393;-22;883;226
4565;2;11;1;4;691;4057;329;29;914;86
4575;2;11;1;4;660;4087;349;-35;929;-26
4585;2;11;1;4;591;4125;413;-65;915;-65
4595;2;11;1;4;566;4102;431;26;894;-46
4605;2;11;1;4;561;4087;463;117;874;-10
4615;2;11;1;4;581;4095;456;195;844;24
4625;2;11;1;4;630;4093;447;234;837;18
4635;2;11;1;4;654;4098;435;230;806;-2
4645;2;11;1;4;658;4100;410;214;740;4
4655;2;11;1;4;620;4094;425;183;713;7
4665;2;11;1;4;568;4098;411;169;697;1
4675;2;11;1;4;560;4114;419;155;674;21
4685;2;11;1;4;574;4108;440;166;628;67
4695;2;11;1;4;589;4091;453;186;602;93
4705;2;11;1;4;613;4100;458;167;563;124
4715;2;11;1;4;612;4108;461;168;532;143
4725;2;11;1;4;670;4125;468;163;466;187
4735;2;11;1;4;759;4035;359;136;432;118
4745;2;11;1;4;751;4060;365;-3;477;-34
4755;2;11;1;4;666;4124;469;-146;474;-93
4765;2;11;1;4;624;4086;492;-148;436;-69
4775;2;11;1;4;593;4078;473;-84;416;-6
4785;2;11;1;4;601;4060;437;-102;416;55
4795;2;11;1;4;658;4067;434;-93;391;123
4805;2;11;1;4;711;4065;391;-39;279;151
4815;2;11;1;4;766;4010;337;-66;225;101
4825;2;11;1;4;728;4049;378;-130;204;20
4835;2;11;1;4;664;4082;434;-205;170;-18
4845;2;11;1;4;589;4086;469;-185;139;-13
4855;2;11;1;4;555;4072;467;-138;104;45
4865;2;11;1;5;564;4052;420;-113;91;81
4875;2;11;1;5;589;4066;412;-117;55;103
4885;2;11;1;5;624;4048;367;-97;-3;73
4895;2;11;1;5;611;4086;335;-109;-62;28
4905;2;11;1;5;619;4087;329;-158;-122;-8
4915;2;11;1;5;567;4102;361;-187;-177;-39
4925;2;11;1;5;531;4101;377;-229;-223;-50
4935;2;11;1;5;500;4093;383;-225;-259;-34
4945;2;11;1;5;504;4101;395;-210;-306;-1
4955;2;11;1;5;564;4081;400;-136;-395;54
4965;2;11;1;5;579;4039;281;-95;-422;-46
4975;2;11;1;5;574;4139;317;-180;-453;-89
4985;2;11;1;5;565;4122;350;-199;-549;-118
4995;2;11;1;5;535;4124;380;-146;-605;-125
5005;2;11;1;5;508;4164;366;-129;-641;-109
5015;2;11;1;5;526;4111;299;-247;-637;-147
5025;2;11;1;5;516;4155;389;-328;-633;-108
5035;2;11;1;5;568;4113;416;-338;-645;-108
5045;2;11;1;5;570;4138;376;-362;-657;-100
5055;2;11;1;5;582;4119;388;-388;-675;-113
5065;2;11;1;5;581;4108;338;-399;-689;-162
5075;2;11;1;5;567;4107;318;-474;-717;-184
5085;2;11;1;5;553;4092;346;-490;-736;-204
5095;2;11;1;5;536;4098;348;-490;-729;-181
5105;2;11;1;5;621;4081;312;-595;-703;-156
5115;2;11;1;5;683;4114;361;-768;-677;-150
5125;2;11;1;5;719;4135;376;-897;-664;-164
5135;2;11;1;5;742;4131;398;-997;-637;-203
5145;2;11;1;5;742;4129;402;-1115;-611;-228
5155;2;11;1;5;717;4072;484;-1183;-589;-241
5165;2;11;1;5;751;4074;480;-1152;-600;-229
5175;2;11;1;5;758;4037;485;-1148;-612;-246
5185;2;11;1;5;759;4010;524;-1100;-635;-253
5195;2;11;1;5;777;3999;528;-972;-634;-251
5205;2;11;1;5;741;3990;570;-830;-634;-236
5215;2;11;1;5;743;4017;554;-742;-597;-234
5225;2;11;1;5;747;4032;528;-673;-563;-239
5235;2;11;1;5;775;4055;511;-614;-530;-231
5245;2;11;1;5;742;4060;453;-592;-495;-262
5255;2;11;1;5;745;4038;431;-588;-470;-292
5265;2;11;1;5;742;4050;389;-656;-438;-341
5275;2;11;1;5;718;4079;390;-736;-446;-372
5285;2;11;1;5;808;4055;309;-1056;-201;-606
5295;2;11;1;5;628;4165;587;-1143;-297;-556
5305;2;11;1;5;604;4117;547;-898;-370;-422
5315;2;11;1;5;520;4134;530;-892;-351;-339
5325;2;11;1;5;521;4125;545;-928;-383;-173
5335;2;11;1;5;469;4128;565;-834;-410;-60
5345;2;11;1;5;527;4093;514;-748;-432;46
5355;2;11;1;5;552;4118;506;-913;-238;-140
6373;2;11;1;6;522;4139;663;-701;-452;80
6383;2;11;1;6;528;4104;536;-498;-449;74
6393;2;11;1;6;576;4102;539;-597;-468;47
6403;2;11;1;6;596;4069;546;-607;-511;21
6413;2;11;1;6;576;4092;624;-660;-486;-121
6423;2;11;1;6;594;4026;632;-566;-630;-17
6433;2;11;1;6;554;4028;693;-461;-647;-49
6443;2;11;1;6;570;4019;690;-383;-675;-29
6453;2;11;1;6;584;3992;709;-323;-674;-34
6463;2;11;1;6;643;3977;694;-288;-648;-63
6473;2;11;1;6;644;3990;701;-289;-649;-99
6483;2;11;1;6;644;4001;695;-247;-649;-129
6493;2;11;1;6;635;4010;712;-184;-656;-155
6503;2;11;1;6;655;4046;513;88;278;-59
6513;2;11;1;6;638;4047;498;97;270;-78
6523;2;11;1;6;619;4073;526;-185;-251;-127
6533;2;11;1;6;614;4076;533;-179;-253;-128
6543;2;11;1;6;614;4076;533;-179;-253;-128
6553;2;11;1;6;605;4082;534;-178;-255;-129
6563;2;11;1;6;605;4082;534;-178;-255;-129
6573;2;11;1;6;598;4089;536;-181;-255;-130
6583;2;11;1;6;595;4096;539;-178;-258;-130
6593;2;11;1;6;595;4096;539;-178;-258;-130
6603;2;11;1;6;592;4100;545;-175;-263;-130
6613;2;11;1;6;588;4098;552;-175;-264;-129
6623;2;11;1;6;588;4098;552;-175;-264;-129
6633;2;11;1;6;585;4093;550;-170;-264;-128
6643;2;11;1;6;585;4093;550;-170;-264;-128
6653;2;11;1;6;582;4092;543;-166;-265;-127
6663;2;11;1;6;582;4092;543;-166;-265;-127
6673;2;11;1;6;579;4090;536;-168;-267;-128
6683;2;11;1;6;579;4090;536;-168;-267;-128
6693;2;11;1;6;580;4086;537;-175;-269;-129
6703;2;11;1;6;581;4085;541;-173;-273;-128
6713;2;11;1;6;581;4085;541;-173;-273;-128
6723;2;11;1;6;581;4087;548;-166;-278;-124
6733;2;11;1;6;581;4087;548;-166;-278;-124
6743;2;11;1;6;584;4088;548;-164;-281;-122
6753;2;11;1;6;584;4088;548;-164;-281;-122
6763;2;11;1;6;585;4089;540;-169;-280;-123
6773;2;11;1;6;585;4089;540;-169;-280;-123
6783;2;11;1;6;584;4091;533;-166;-281;-123
6793;2;11;1;6;584;4091;533;-166;-281;-123
6803;2;11;1;6;581;4092;530;-156;-286;-123
6813;2;11;1;6;581;4092;530;-156;-286;-123
6823;2;11;1;6;579;4092;530;-150;-288;-122
6833;2;11;1;6;565;4088;522;-143;-294;-116
6843;2;11;1;6;552;4077;507;-117;-313;-108
6853;2;11;1;6;551;4066;493;-96;-307;-116
6863;2;11;1;6;567;4079;504;-91;-314;-108
6873;2;11;1;7;607;4058;492;-84;-368;-90
6883;2;11;1;7;604;4057;473;-103;-403;-104
6893;2;11;1;7;618;4072;500;-139;-447;-122
6903;2;11;1;7;591;4077;492;-156;-484;-133
6913;2;11;1;7;593;4078;494;-172;-514;-168
6923;2;11;1;7;601;4080;516;-188;-547;-186
6933;2;11;1;7;569;4067;518;-229;-564;-198
6943;2;11;1;7;560;4070;526;-237;-609;-197
6953;2;11;1;7;562;4069;528;-230;-649;-200
6963;2;11;1;7;571;4077;551;-225;-692;-196
6973;2;11;1;7;548;4098;531;-209;-742;-187
6983;2;11;1;7;566;4073;536;-206;-782;-172
6993;2;11;1;7;564;4081;532;-193;-814;-150
7003;2;11;1;7;570;4093;555;-168;-843;-140
7013;2;11;1;7;563;4094;514;-184;-891;-104
7023;2;11;1;7;619;4089;492;-205;-857;-179
7033;2;11;1;7;616;4101;479;-276;-913;-192
7043;2;11;1;7;605;4085;478;-367;-979;-200
7053;2;11;1;7;585;4101;491;-406;-1014;-214
7063;2;11;1;7;538;4090;509;-444;-1032;-208
7073;2;11;1;7;533;4092;520;-463;-1031;-197
7083;2;11;1;7;535;4077;522;-486;-1016;-190
7093;2;11;1;7;589;4089;496;-481;-1006;-198
7103;2;11;1;7;592;4078;483;-511;-1031;-189
7113;2;11;1;7;599;4091;473;-550;-1058;-184
7123;2;11;1;7;588;4087;505;-538;-1067;-186
7133;2;11;1;7;564;4077;530;-540;-1063;-198
7143;2;11;1;7;567;4055;544;-526;-1044;-188
7153;2;11;1;7;582;4053;543;-484;-1012;-198
7163;2;11;1;7;601;4067;544;-467;-1011;-215
7173;2;11;1;7;564;4059;543;-510;-1030;-206
7183;2;11;1;7;539;4057;547;-512;-1031;-187
7193;2;11;1;7;545;4072;560;-527;-1014;-160
7203;2;11;1;7;566;4089;584;-577;-1000;-140
7213;2;11;1;7;584;4081;596;-614;-990;-143
7223;2;11;1;7;584;4086;591;-635;-958;-148
7233;2;11;1;7;570;4051;597;-656;-952;-142
7243;2;11;1;7;572;4033;633;-665;-931;-137
7253;2;11;1;7;578;4036;611;-652;-885;-135
7263;2;11;1;7;573;4054;617;-674;-847;-127
7273;2;11;1;7;586;4063;626;-656;-827;-113
7283;2;11;1;7;593;4099;633;-616;-807;-117
7293;2;11;1;7;600;4108;595;-619;-788;-135
7303;2;11;1;7;584;4112;578;-633;-788;-133
7313;2;11;1;7;557;4106;560;-610;-792;-144
7323;2;11;1;7;552;4090;570;-598;-791;-124
7333;2;11;1;7;588;4062;598;-553;-771;-108
7343;2;11;1;7;637;4041;557;-509;-775;-105
7353;2;11;1;7;651;4037;563;-514;-781;-89
7363;2;11;1;7;659;4072;605;-500;-779;-81
7373;2;11;1;8;641;4046;601;-450;-751;-81
7383;2;11;1;8;639;4032;591;-394;-699;-81
7393;2;11;1;8;625;4059;582;-361;-668;-65
7403;2;11;1;8;658;4061;568;-352;-637;-47
7413;2;11;1;8;659;4082;547;-343;-638;-41
7423;2;11;1;8;689;4061;526;-356;-657;-54
7433;2;11;1;8;674;4047;527;-363;-662;-66
7443;2;11;1;8;632;4062;562;-346;-649;-88
7453;2;11;1;8;615;4063;576;-297;-641;-73
7463;2;11;1;8;626;4073;603;-263;-623;-68
7473;2;11;1;8;651;4089;620;-200;-609;-55
7483;2;11;1;8;653;4079;630;-186;-586;-58
7493;2;11;1;8;656;4083;622;-167;-570;-49
7503;2;11;1;8;654;4073;625;-163;-523;-50
7513;2;11;1;8;668;4061;629;-174;-489;-46
7523;2;11;1;8;661;4072;633;-177;-465;-40
7533;2;11;1;8;670;4050;643;-167;-471;-25
7543;2;11;1;8;700;4033;615;-164;-482;-17
7553;2;11;1;8;675;4031;622;-161;-476;-23
7563;2;11;1;8;656;4038;627;-139;-483;-21
7573;2;11;1;8;639;4035;607;-122;-496;-23
7583;2;11;1;8;663;4060;604;-101;-502;-42
7593;2;11;1;8;639;4073;588;-89;-524;-49
7603;2;11;1;8;658;4091;582;-87;-547;-57
7613;2;11;1;8;630;4103;594;-117;-576;-50
7623;2;11;1;8;624;4084;620;-151;-597;-31
7633;2;11;1;8;621;4055;608;-156;-604;-13
7643;2;11;1;8;659;4034;609;-176;-589;2
7653;2;11;1;8;695;4021;624;-208;-548;-20
7663;2;11;1;8;698;4051;685;-187;-527;-37
7673;2;11;1;8;730;4040;688;-156;-527;-43
7683;2;11;1;8;731;4037;681;-130;-519;-53
7693;2;11;1;8;719;4029;665;-143;-493;-49
7703;2;11;1;8;719;4014;642;-185;-455;-64
7713;2;11;1;8;741;4056;655;-172;-429;-80
7723;2;11;1;8;716;4065;658;-148;-437;-78
7733;2;11;1;8;680;4083;647;-119;-435;-55
7743;2;11;1;8;644;4090;686;-80;-435;-2
7753;2;11;1;8;649;4086;714;-32;-410;63
7763;2;11;1;8;680;4055;702;-7;-346;111
7773;2;11;1;8;740;4050;719;-55;-276;121
7783;2;11;1;8;787;4053;726;-72;-197;82
7793;2;11;1;8;769;4039;739;-118;-147;40
7803;2;11;1;8;702;4059;784;-95;-138;32
7813;2;11;1;8;630;4034;780;30;-119;36
7823;2;11;1;8;604;4062;752;140;-109;58
7833;2;11;1;8;564;4092;744;241;-133;94
7843;2;11;1;8;580;4104;708;330;-179;132
7853;2;11;1;8;582;4117;672;379;-223;146
7863;2;11;1;8;574;4151;671;401;-245;137
7873;2;11;1;9;605;4146;612;353;-283;103
7883;2;11;1;9;594;4107;615;284;-323;66
7893;2;11;1;9;589;4095;625;244;-372;22
7903;2;11;1;9;579;4084;644;303;-438;-11
7913;2;11;1;9;590;4058;601;374;-495;-73
7923;2;11;1;9;549;4069;582;330;-622;-55
7933;2;11;1;9;617;3957;444;303;-650;-100
7943;2;11;1;9;659;3972;444;191;-661;-242
7953;2;11;1;9;693;3977;404;51;-771;-300
7963;2;11;1;9;664;4007;417;-49;-887;-385
7973;2;11;1;9;604;4056;457;-109;-1033;-436
7983;2;11;1;9;538;4077;498;-112;-1153;-451
7993;2;11;1;9;497;4105;491;-112;-1206;-497
8003;2;11;1;9;492;4095;493;-55;-1247;-500
8013;2;11;1;9;523;4143;511;-74;-1301;-494
8023;2;11;1;9;610;4115;550;-113;-1377;-483
8033;2;11;1;9;643;4100;559;-145;-1404;-543
8043;2;11;1;9;682;4085;598;-157;-1386;-633
8053;2;11;1;9;677;4085;619;-163;-1368;-707
8063;2;11;1;9;732;4029;602;-132;-1377;-747
8073;2;11;1;9;747;4028;562;-152;-1386;-822
8083;2;11;1;9;777;4036;578;-134;-1408;-924
8093;2;11;1;9;766;3996;523;-49;-1477;-979
8103;2;11;1;9;721;4036;554;-61;-1556;-1011
8113;2;11;1;9;722;4070;563;4;-1694;-947
8123;2;11;1;9;719;4148;527;93;-1813;-874
8133;2;11;1;9;679;4039;546;82;-1889;-781
8143;2;11;1;9;878;4118;424;-201;-1911;-769
8153;2;11;1;9;948;4116;469;-350;-1961;-700
8163;2;11;1;9;974;3985;303;-544;-1875;-750
8173;2;11;1;9;1041;3828;277;-1169;-1703;-730
8183;2;11;1;9;1122;3967;425;-1639;-1483;-875
8193;2;11;1;9;726;4067;777;-1347;-1432;-730
8203;2;11;1;9;687;4245;767;-849;-1359;-506
8213;2;11;1;9;587;4269;793;-377;-1352;-266
8223;2;11;1;9;571;4240;754;118;-1320;-47
8233;2;11;1;9;648;4292;743;425;-1158;52
8243;2;11;1;9;729;4152;672;425;-856;-39
8253;2;11;1;9;694;4286;706;499;-559;-150
8263;2;11;1;9;542;4247;946;827;-502;-129
8273;2;11;1;9;509;4117;1004;1283;-458;-49
8283;2;11;1;9;584;3973;863;1498;-380;13
8293;2;11;1;9;511;3898;887;1505;-246;31
8303;2;11;1;9;562;3784;845;1407;-257;164
8313;2;11;1;9;515;3708;781;1291;-473;330
8323;2;11;1;9;466;3543;762;1325;-617;361
8333;2;11;1;9;358;3657;931;1349;-799;434
8343;2;11;1;9;215;3582;1163;1625;-1044;587
8353;2;11;1;9;129;3636;1275;1917;-1113;643
8363;2;11;1;9;169;3771;1371;2230;-1105;604
8373;2;11;1;10;260;3985;1422;2736;-1097;381
8383;2;11;1;10;249;4152;1439;3319;-1174;181
8393;2;11;1;10;297;4210;1263;3828;-1334;-39
8403;2;11;1;10;234;4232;1108;4089;-1505;-219
8413;2;11;1;10;71;4233;989;4073;-1725;-211
8423;2;11;1;10;31;4183;1016;3623;-1932;-32
8433;2;11;1;10;62;4103;1132;3120;-2022;129
8443;2;11;1;10;227;4083;1443;2685;-2063;299
8453;2;11;1;10;401;4030;1766;2450;-2083;440
8463;2;11;1;10;437;4058;1895;2294;-2094;524
8473;2;11;1;10;494;3975;2003;2307;-1863;332
8483;2;11;1;10;490;3962;1901;2340;-1892;316
8493;2;11;1;10;402;3877;1771;2233;-2070;488
8503;2;11;1;10;357;3832;1616;2071;-2142;594
8513;2;11;1;10;376;3866;1488;1802;-2277;691
8523;2;11;1;10;388;3879;1393;1521;-2368;779
8533;2;11;1;10;391;3943;1338;1073;-2609;915
8543;2;11;1;10;347;3742;1188;377;-2875;1218
8553;2;11;1;10;203;3709;1240;-90;-2898;1274
8563;2;11;1;10;-148;3692;1312;-244;-3089;1368
8573;2;11;1;10;-214;3593;1586;385;-3151;1532
8583;2;11;1;10;-170;3112;1476;2392;-3247;1541
8593;2;11;1;10;42;3084;1068;3925;-3125;1414
8603;2;11;1;10;291;2777;695;4425;-3113;1343
8613;2;11;1;10;511;2767;387;4469;-3322;1266
8623;2;11;1;10;556;2848;55;4505;-3766;1249
8633;2;11;1;10;499;2965;-232;4690;-3897;943
8643;2;11;1;10;481;3333;-217;4646;-3875;696
8653;2;11;1;10;602;3647;-134;4569;-3997;469
8663;2;11;1;10;645;4043;168;4431;-4268;234
8673;2;11;1;10;730;4117;182;4697;-4639;117
8683;2;11;1;10;911;4008;11;5058;-4754;-90
8693;2;11;1;10;935;3914;-425;5516;-4642;-186
8703;2;11;1;10;927;3930;-834;5734;-4118;-329
8713;2;11;1;10;927;4121;-1227;6017;-3661;-133
8723;2;11;1;10;974;4449;-1510;6226;-3435;328
8733;2;11;1;10;1295;4773;-1793;6232;-3305;696
8743;2;11;1;10;1722;4940;-2066;6146;-3200;775
8753;2;11;1;10;2093;5276;-2023;5558;-3594;924
8763;2;11;1;10;2324;4757;-2370;4855;-3874;549
8773;2;11;1;10;2136;4659;-2062;4761;-3867;78
8783;2;11;1;10;1492;4638;-1668;4247;-4105;390
8793;2;11;1;10;1115;4253;-1332;4305;-3588;488
8803;2;11;1;10;1257;4359;-728;5014;-2295;152
8813;2;11;1;10;1851;4718;-165;6220;-1201;-157
8823;2;11;1;10;2517;4809;-400;7485;-555;-394
8833;2;11;1;10;2724;4805;-1183;8136;54;-1033
8843;2;11;1;10;2183;5099;-1789;7973;651;-1569
8853;2;11;1;10;1568;5063;-2352;7506;1152;-1589
8863;2;11;1;10;1242;4858;-2896;7242;1707;-1596
8873;2;11;1;11;924;4618;-3049;7507;2139;-1562
8883;2;11;1;11;542;4307;-2968;8310;2291;-1480
8893;2;11;1;11;357;3902;-2799;9037;2353;-1439
8903;2;11;1;11;122;3566;-2527;9474;2217;-1386
8913;2;11;1;11;-11;3101;-2195;9656;1958;-1289
8923;2;11;1;11;-140;2824;-1948;9640;1790;-1493
8933;2;11;1;11;-520;2666;-1482;9736;1789;-2028
8943;2;11;1;11;-679;2559;-1103;10125;1603;-2128
8953;2;11;1;11;-499;2644;-797;10661;1260;-2122
8963;2;11;1;11;-193;2669;-396;11376;827;-2160
8973;2;11;1;11;320;2584;-216;12262;290;-2109
8983;2;11;1;11;521;2428;-287;12949;-136;-2284
8993;2;11;1;11;409;2292;-464;13115;-565;-2509
9003;2;11;1;11;479;2121;-552;12918;-979;-2698
9013;2;11;1;11;545;2085;-346;12558;-1196;-3150
9023;2;11;1;11;834;2516;-63;11641;-427;-3808
9033;2;11;1;11;629;4472;636;9308;501;-6150
9043;2;11;1;11;-13;2364;588;8548;515;-5955
9053;2;11;1;11;-213;1447;-474;5098;1042;-5323
9063;2;11;1;11;-336;2172;-820;1647;1529;-4707
9073;2;11;1;11;-178;3010;-1009;-1473;1734;-3820
9083;2;11;1;11;592;2921;-645;-2042;1706;-2716
9093;2;11;1;11;2355;394;-1856;-1152;1392;-1877
9103;2;11;1;11;4025;-2702;-3991;-1517;269;-2223
9113;2;11;1;11;2532;-135;-4762;-1169;-806;-1693
9123;2;11;1;11;-1611;5118;-4045;381;-1461;-515
9133;2;11;1;11;-2003;3633;-4761;172;-1696;3513
9143;2;11;1;11;-109;1564;-5564;1373;-1123;4042
9153;2;11;1;11;1668;2370;-7726;3448;-1123;2476
9163;2;11;1;11;1811;1350;-9723;3196;-2660;798
9173;2;11;1;11;425;1462;-9550;1710;-3537;756
9183;2;11;1;11;-487;2341;-8769;957;-3324;886
9193;2;11;1;11;-661;4110;-6967;787;-2176;1179
9203;2;11;1;11;28;5148;-5323;3869;-1458;1953
9213;2;11;1;11;498;4108;-6198;6709;-1254;2869
9223;2;11;1;11;576;2682;-7005;5579;-970;2860
9233;2;11;1;11;437;2253;-6297;3643;-705;2298
9243;2;11;1;11;686;2370;-5574;3291;-729;1906
9253;2;11;1;11;1122;2436;-5293;2974;-1002;1835
9263;2;11;1;11;1211;2649;-4779;2108;-1074;1346
9273;2;11;1;11;914;3125;-4303;1529;-857;504
9283;2;11;1;11;410;3623;-4108;1081;-457;-2
9293;2;11;1;11;-171;3917;-3961;825;183;-21
9303;2;11;1;11;-242;3826;-4211;1102;954;183
9313;2;11;1;11;84;3862;-4527;1054;1663;295
9323;2;11;1;11;345;3729;-4896;499;2074;562
9333;2;11;1;11;593;3605;-4916;-602;2288;711
9343;2;11;1;11;585;3693;-4568;-1881;2411;785
9353;2;11;1;11;530;3726;-3847;-3004;2452;899
9363;2;11;1;11;513;3673;-3086;-3776;2374;1233
