timestamp;subject_id;activity;label;seq;ax;ay;az;gx;gy;gz
709390;2;13;1;1404;-680;4033;180;-204;-307;-165
709400;2;13;1;1404;-666;4046;195;-154;-299;-145
709410;2;13;1;1404;-673;4043;204;-134;-288;-148
709420;2;13;1;1404;-657;4045;206;-143;-264;-131
709430;2;13;1;1404;-647;4044;182;-145;-216;-111
709440;2;13;1;1404;-637;4053;173;-99;-187;-93
709450;2;13;1;1404;-650;4055;177;-91;-191;-69
709460;2;13;1;1404;-651;4053;160;-116;-202;-70
709470;2;13;1;1404;-645;4044;159;-99;-178;-81
709480;2;13;1;1404;-657;4042;131;-99;-132;-103
709490;2;13;1;1404;-659;4042;133;-121;-96;-133
709500;2;13;1;1404;-670;4040;151;-155;-93;-146
709510;2;13;1;1404;-673;4032;127;-191;-103;-144
709520;2;13;1;1404;-676;4020;163;-229;-121;-136
709530;2;13;1;1404;-687;4033;171;-234;-112;-119
709540;2;13;1;1404;-673;4029;171;-220;-78;-122
709550;2;13;1;1404;-682;4047;171;-205;-71;-112
709560;2;13;1;1404;-659;4031;153;-193;-70;-103
709570;2;13;1;1404;-685;4039;179;-202;-94;-116
709580;2;13;1;1404;-693;4037;173;-173;-105;-124
709590;2;13;1;1404;-681;4047;136;-187;-53;-115
709600;2;13;1;1404;-676;4040;127;-285;-26;-118
709610;2;13;1;1404;-651;4054;140;-294;-71;-117
709620;2;13;1;1404;-667;4046;124;-267;-128;-95
709630;2;13;1;1404;-655;4036;147;-282;-152;-69
709640;2;13;1;1404;-666;4052;167;-268;-180;-45
709650;2;13;1;1404;-658;4045;180;-241;-204;-36
709660;2;13;1;1404;-632;4064;141;-257;-160;-49
709670;2;13;1;1404;-620;4082;166;-348;-82;-80
709680;2;13;1;1404;-622;4061;233;-349;-78;-113
709690;2;13;1;1404;-623;4046;232;-319;-63;-123
709700;2;13;1;1404;-627;4018;205;-309;-13;-110
709710;2;13;1;1404;-623;4011;218;-301;30;-101
709720;2;13;1;1404;-623;4007;216;-297;61;-95
709730;2;13;1;1404;-635;3994;184;-306;93;-91
709740;2;13;1;1404;-644;4010;188;-322;109;-94
709750;2;13;1;1404;-667;4011;207;-326;110;-99
709760;2;13;1;1404;-679;4030;226;-313;98;-102
709770;2;13;1;1404;-682;4052;212;-262;123;-100
709780;2;13;1;1404;-680;4038;210;-228;146;-101
709790;2;13;1;1404;-660;4039;241;-186;148;-110
709800;2;13;1;1404;-686;4058;209;-156;154;-105
709810;2;13;1;1404;-678;4058;204;-157;180;-83
709820;2;13;1;1404;-679;4068;193;-183;190;-82
709830;2;13;1;1404;-657;4085;164;-265;187;-87
709840;2;13;1;1404;-674;4057;181;-320;185;-94
709850;2;13;1;1404;-667;4053;181;-354;200;-118
709860;2;13;1;1404;-665;4038;188;-377;179;-128
709870;2;13;1;1404;-679;4014;198;-380;148;-117
709880;2;13;1;1404;-678;4007;205;-374;116;-125
709890;2;13;1;1405;-685;4020;211;-388;118;-124
709900;2;13;1;1405;-688;4039;235;-357;104;-111
709910;2;13;1;1405;-703;4033;216;-319;66;-110
709920;2;13;1;1405;-687;4038;184;-325;40;-123
709930;2;13;1;1405;-697;4041;167;-323;28;-142
709940;2;13;1;1405;-696;4029;205;-342;16;-153
709950;2;13;1;1405;-725;4021;241;-321;-40;-149
709960;2;13;1;1405;-729;4013;225;-275;-67;-124
709970;2;13;1;1405;-699;4019;225;-233;-52;-94
709980;2;13;1;1405;-700;4019;217;-182;-65;-68
709990;2;13;1;1405;-681;4042;212;-191;-103;-59
710000;2;13;1;1405;-694;4032;227;-235;-124;-54
710010;2;13;1;1405;-670;4028;247;-251;-139;-62
710020;2;13;1;1405;-667;4029;209;-245;-126;-69
710030;2;13;1;1405;-666;4030;199;-296;-117;-79
710040;2;13;1;1405;-630;4024;220;-379;-114;-77
710050;2;13;1;1405;-668;4034;262;-355;-162;-105
710060;2;13;1;1405;-683;4028;264;-337;-180;-119
710070;2;13;1;1405;-716;4025;275;-331;-145;-101
710080;2;13;1;1405;-700;4005;279;-306;-96;-93
710090;2;13;1;1405;-717;4004;275;-243;-46;-86
710100;2;13;1;1405;-700;4004;269;-131;-54;-49
710110;2;13;1;1405;-681;3999;238;-57;-70;-22
710120;2;13;1;1405;-684;4000;212;-75;-100;-22
710130;2;13;1;1405;-670;4010;247;-151;-141;-28
710140;2;13;1;1405;-697;4035;269;-159;-155;-20
710150;2;13;1;1405;-673;4046;286;-116;-139;-5
710160;2;13;1;1405;-686;4068;274;-49;-132;-9
710170;2;13;1;1405;-684;4089;242;-56;-142;-20
710180;2;13;1;1405;-678;4062;237;-59;-149;-27
710190;2;13;1;1405;-688;4047;216;-36;-101;-41
710200;2;13;1;1405;-703;4034;191;-16;-46;-57
710210;2;13;1;1405;-690;4020;194;-58;-51;-82
710220;2;13;1;1405;-692;4018;200;-99;-71;-126
710230;2;13;1;1405;-720;4000;225;-69;-119;-132
710240;2;13;1;1405;-710;3974;221;-29;-200;-109
710250;2;13;1;1405;-707;3965;241;-38;-253;-94
710260;2;13;1;1405;-685;3964;263;-76;-259;-70
710270;2;13;1;1405;-654;3975;282;-100;-249;-67
710280;2;13;1;1405;-634;3996;328;-63;-223;-70
710290;2;13;1;1405;-634;4023;354;-10;-203;-67
710300;2;13;1;1405;-665;4040;344;36;-191;-54
710310;2;13;1;1405;-681;4056;326;40;-182;-38
710320;2;13;1;1405;-728;4066;283;78;-178;-41
710330;2;13;1;1405;-732;4080;226;107;-208;-24
710340;2;13;1;1405;-763;4064;187;118;-271;12
710350;2;13;1;1405;-756;4063;131;104;-364;59
710360;2;13;1;1405;-751;4071;126;30;-439;80
710370;2;13;1;1405;-752;4085;158;-82;-497;90
710380;2;13;1;1405;-731;4082;232;-204;-524;91
710390;2;13;1;1406;-708;4051;292;-284;-501;41
710400;2;13;1;1406;-685;4027;351;-284;-420;-19
710410;2;13;1;1406;-681;3982;397;-178;-323;-30
710420;2;13;1;1406;-656;3946;413;-26;-301;16
710430;2;13;1;1406;-654;3922;385;63;-307;81
710440;2;13;1;1406;-640;3958;366;71;-270;112
710450;2;13;1;1406;-642;4038;346;100;-226;103
710460;2;13;1;1406;-648;4086;333;193;-160;101
710470;2;13;1;1406;-677;4114;278;318;-160;63
710480;2;13;1;1406;-715;4107;212;321;-182;19
710490;2;13;1;1406;-743;4105;159;222;-202;-17
710500;2;13;1;1406;-764;4101;98;69;-253;-11
710510;2;13;1;1406;-740;4075;98;-72;-343;35
710520;2;13;1;1406;-731;4073;104;-259;-429;85
710530;2;13;1;1406;-702;4074;151;-443;-476;98
710540;2;13;1;1406;-678;4050;205;-564;-460;79
710550;2;13;1;1406;-651;4041;281;-574;-405;59
710560;2;13;1;1406;-639;4008;328;-462;-351;9
710570;2;13;1;1406;-647;3965;335;-334;-287;-24
710580;2;13;1;1406;-643;3947;321;-183;-246;-38
710590;2;13;1;1406;-656;3934;285;-51;-173;-60
710600;2;13;1;1406;-637;3944;278;21;-157;-49
710610;2;13;1;1406;-645;3975;247;43;-196;-33
710620;2;13;1;1406;-647;3999;260;17;-232;-26
710630;2;13;1;1406;-670;4035;263;25;-245;-19
710640;2;13;1;1406;-667;4043;256;91;-215;-25
710650;2;13;1;1406;-668;4080;225;123;-180;-36
710660;2;13;1;1406;-650;4088;205;68;-163;-47
710670;2;13;1;1406;-649;4091;225;4;-172;-72
710680;2;13;1;1406;-677;4067;238;-43;-178;-91
710690;2;13;1;1406;-674;4064;252;-31;-196;-94
710700;2;13;1;1406;-675;4048;235;-30;-222;-64
710710;2;13;1;1406;-675;4040;222;-10;-272;-29
710720;2;13;1;1406;-658;4024;185;-26;-316;11
710730;2;13;1;1406;-659;4048;172;-85;-353;30
710740;2;13;1;1406;-656;4066;192;-141;-401;18
710750;2;13;1;1406;-646;4058;187;-172;-411;0
710760;2;13;1;1406;-618;4051;223;-185;-393;-9
710770;2;13;1;1406;-646;4042;227;-160;-369;-36
710780;2;13;1;1406;-632;4035;228;-98;-343;-50
710790;2;13;1;1406;-631;4018;217;-24;-280;-32
710800;2;13;1;1406;-611;4013;195;6;-215;-16
710810;2;13;1;1406;-599;4019;208;-34;-172;-21
710820;2;13;1;1406;-592;4032;208;-56;-158;-25
710830;2;13;1;1406;-604;4049;214;-61;-127;-18
710840;2;13;1;1406;-616;4045;216;-65;-74;-39
710850;2;13;1;1406;-621;4039;216;-97;-37;-79
710860;2;13;1;1406;-648;4017;256;-115;-36;-89
710870;2;13;1;1406;-671;3993;210;-70;-36;-79
710880;2;13;1;1406;-681;3976;198;-49;1;-63
710890;2;13;1;1407;-674;3983;191;-12;11;-21
710900;2;13;1;1407;-637;3985;182;31;-9;8
710910;2;13;1;1407;-638;4008;202;52;-33;1
710920;2;13;1;1407;-626;4016;237;22;-62;-29
710930;2;13;1;1407;-624;4030;261;20;-79;-53
710940;2;13;1;1407;-623;4076;321;73;-75;-71
710950;2;13;1;1407;-627;4100;306;176;-73;-57
710960;2;13;1;1407;-648;4117;263;241;-41;-35
710970;2;13;1;1407;-646;4095;188;278;4;-31
710980;2;13;1;1407;-659;4069;112;251;14;-40
710990;2;13;1;1407;-667;4062;55;117;-5;-49
711000;2;13;1;1407;-679;4051;18;-57;-39;-46
711010;2;13;1;1407;-670;4007;27;-212;-91;-43
711020;2;13;1;1407;-685;3984;63;-297;-160;-24
711030;2;13;1;1407;-670;3995;136;-335;-207;18
711040;2;13;1;1407;-646;3999;213;-251;-239;52
711050;2;13;1;1407;-630;4017;262;-54;-226;40
711060;2;13;1;1407;-600;4009;318;149;-229;24
711070;2;13;1;1407;-622;3988;327;267;-279;2
711080;2;13;1;1407;-654;3963;352;384;-329;20
711090;2;13;1;1407;-699;3925;401;590;-326;90
711100;2;13;1;1407;-720;3902;376;837;-246;162
711110;2;13;1;1407;-751;3885;321;1002;-155;241
711120;2;13;1;1407;-726;3896;234;1045;-16;319
711130;2;13;1;1407;-684;3960;200;1087;83;379
711140;2;13;1;1407;-642;3991;170;1219;109;395
711150;2;13;1;1407;-604;4051;97;1452;56;429
711160;2;13;1;1407;-561;4019;-35;1504;59;460
711170;2;13;1;1407;-482;4037;51;1278;-111;481
711180;2;13;1;1407;-515;4053;224;963;-564;460
711190;2;13;1;1407;-557;4114;376;650;-769;437
711200;2;13;1;1407;-544;4098;474;630;-379;342
711210;2;13;1;1407;-485;4106;500;972;186;312
711220;2;13;1;1407;-439;4061;395;1330;444;461
711230;2;13;1;1407;-338;4003;217;1378;503;690
711240;2;13;1;1407;-276;4056;134;878;495;729
711250;2;13;1;1407;-265;4082;225;200;423;686
711260;2;13;1;1407;-323;4204;436;-228;314;455
711270;2;13;1;1407;-431;4280;549;-401;305;247
711280;2;13;1;1407;-531;4293;596;-290;559;147
711290;2;13;1;1407;-575;4252;496;62;1091;169
711300;2;13;1;1407;-554;4184;359;337;1633;251
711310;2;13;1;1407;-489;4111;233;416;1893;298
711320;2;13;1;1407;-455;4132;138;361;1819;337
711330;2;13;1;1407;-443;4149;141;255;1586;340
711340;2;13;1;1407;-477;4130;192;128;1358;278
711350;2;13;1;1407;-502;4082;264;71;1215;179
711360;2;13;1;1407;-523;4020;387;140;1091;115
711370;2;13;1;1407;-515;3937;456;288;872;136
711380;2;13;1;1407;-493;3848;473;436;662;199
711390;2;13;1;1408;-485;3786;448;491;582;288
711400;2;13;1;1408;-439;3767;450;496;568;363
711410;2;13;1;1408;-404;3742;479;503;500;414
711420;2;13;1;1408;-433;3736;448;499;419;455
711430;2;13;1;1408;-462;3751;471;523;328;482
711440;2;13;1;1408;-469;3770;454;600;238;467
711450;2;13;1;1408;-511;3801;319;548;225;381
711460;2;13;1;1408;-503;3797;285;346;243;283
711470;2;13;1;1408;-528;3814;311;155;124;86
711480;2;13;1;1408;-577;3901;316;90;-62;-101
711490;2;13;1;1408;-598;3903;348;30;-153;-200
711500;2;13;1;1408;-646;3945;442;146;-252;-356
711510;2;13;1;1408;-672;3977;515;339;-474;-446
711520;2;13;1;1408;-704;4022;555;546;-693;-535
711530;2;13;1;1408;-680;4056;579;716;-777;-623
711540;2;13;1;1408;-684;4155;627;878;-833;-717
711550;2;13;1;1408;-627;4195;638;1027;-931;-820
711560;2;13;1;1408;-651;4276;694;1060;-1038;-973
711570;2;13;1;1408;-660;4311;771;1095;-1133;-1129
711580;2;13;1;1408;-681;4366;804;1110;-1189;-1281
711590;2;13;1;1408;-676;4387;786;1037;-1109;-1439
711600;2;13;1;1408;-677;4410;823;984;-968;-1554
711610;2;13;1;1408;-688;4482;846;1025;-897;-1593
711620;2;13;1;1408;-711;4581;801;984;-992;-1617
711630;2;13;1;1408;-705;4616;639;922;-1043;-1574
711640;2;13;1;1408;-687;4595;350;750;-994;-1572
711650;2;13;1;1408;-636;4579;-31;434;-871;-1543
711660;2;13;1;1408;-586;4573;-368;81;-886;-1479
711670;2;13;1;1408;-622;4574;-575;-186;-1262;-1407
711680;2;13;1;1408;-758;4547;-691;-436;-2132;-1277
711690;2;13;1;1408;-883;4416;-769;-643;-2905;-1152
711700;2;13;1;1408;-998;4307;-845;-1082;-3507;-972
711710;2;13;1;1408;-1070;4302;-647;-1469;-3910;-668
711720;2;13;1;1408;-1081;4298;-370;-1498;-4210;-299
711730;2;13;1;1408;-995;4468;-121;-1159;-4203;135
711740;2;13;1;1408;-827;4567;35;-702;-3938;346
711750;2;13;1;1408;-700;4639;44;-27;-3451;331
711760;2;13;1;1408;-622;4555;-243;502;-2735;123
711770;2;13;1;1408;-613;4364;-648;854;-1924;-117
711780;2;13;1;1408;-607;4038;-990;887;-1368;-333
711790;2;13;1;1408;-579;3655;-1299;557;-1213;-696
711800;2;13;1;1408;-626;3470;-1627;-128;-1090;-1254
711810;2;13;1;1408;-743;3504;-1561;-1102;-1109;-1479
711820;2;13;1;1408;-913;3583;-1211;-1740;-1924;-1190
711830;2;13;1;1408;-1124;3763;-646;-1706;-3543;-464
711840;2;13;1;1408;-1117;3874;-7;-750;-5438;716
711850;2;13;1;1408;-1028;3835;254;1144;-6873;1545
711860;2;13;1;1408;-952;3757;-26;2952;-6979;1591
711870;2;13;1;1408;-810;3765;-337;3878;-5907;1110
711880;2;13;1;1408;-753;3833;-365;4230;-4726;580
711890;2;13;1;1409;-732;3971;-385;4318;-4096;347
711900;2;13;1;1409;-681;4119;-371;4171;-3951;416
711910;2;13;1;1409;-622;4198;-348;3748;-3961;421
711920;2;13;1;1409;-599;4142;-329;3116;-3638;219
711930;2;13;1;1409;-638;4183;-273;2554;-2999;-252
711940;2;13;1;1409;-667;4154;-264;2076;-2357;-587
711950;2;13;1;1409;-730;4095;-210;1490;-2017;-586
711960;2;13;1;1409;-679;3971;-116;922;-1977;-402
711970;2;13;1;1409;-605;3802;-42;457;-1883;-309
711980;2;13;1;1409;-592;3628;79;278;-1583;-367
711990;2;13;1;1409;-632;3482;184;374;-1217;-423
712000;2;13;1;1409;-734;3372;232;549;-902;-356
712010;2;13;1;1409;-793;3305;208;662;-627;-155
712020;2;13;1;1409;-800;3298;200;781;-376;48
712030;2;13;1;1409;-749;3357;151;943;-144;109
712040;2;13;1;1409;-801;3450;73;1076;50;55
712050;2;13;1;1409;-857;3537;8;1107;266;-13
712060;2;13;1;1409;-937;3610;-50;1083;465;-27
712070;2;13;1;1409;-996;3677;-74;1034;597;-22
712080;2;13;1;1409;-1031;3744;-90;965;642;-19
712090;2;13;1;1409;-1065;3797;-134;821;644;-33
712100;2;13;1;1409;-1055;3820;-153;626;620;-105
712110;2;13;1;1409;-1046;3801;-124;415;562;-198
712120;2;13;1;1409;-1048;3817;-105;251;507;-275
712130;2;13;1;1409;-1050;3861;7;157;458;-266
712140;2;13;1;1409;-1036;3863;87;169;394;-251
712150;2;13;1;1409;-1026;3889;119;253;355;-229
712160;2;13;1;1409;-1007;3925;122;277;353;-198
712170;2;13;1;1409;-956;3979;110;179;346;-149
712180;2;13;1;1409;-896;4010;86;82;322;-100
712190;2;13;1;1409;-844;4051;-8;-102;340;-92
712200;2;13;1;1409;-891;4129;-25;-488;282;-62
712210;2;13;1;1409;-943;4147;-78;-939;64;-21
712220;2;13;1;1409;-992;4182;-171;-1330;80;43
712230;2;13;1;1409;-1043;4258;-135;-1557;274;189
712240;2;13;1;1409;-1122;4318;-71;-1522;376;324
712250;2;13;1;1409;-1142;4361;-67;-1345;476;510
712260;2;13;1;1409;-1099;4405;-128;-1180;657;628
712270;2;13;1;1409;-998;4385;-200;-1092;893;612
712280;2;13;1;1409;-876;4303;-305;-1094;1100;450
712290;2;13;1;1409;-800;4204;-466;-1165;1231;240
712300;2;13;1;1409;-754;4256;-559;-1285;1302;75
712310;2;13;1;1409;-790;4466;-563;-1313;1346;-16
712320;2;13;1;1409;-889;4670;-597;-1154;1445;-37
712330;2;13;1;1409;-869;4722;-716;-738;1757;-144
712340;2;13;1;1409;-961;4475;-1087;-441;2108;-356
712350;2;13;1;1409;-1177;4079;-1723;-944;2500;-538
712360;2;13;1;1409;-1275;3773;-1987;-2180;2569;51
712370;2;13;1;1409;-791;3524;-1638;-3475;1843;642
712380;2;13;1;1409;-313;3303;-1112;-4007;596;201
712390;2;13;1;1410;-482;3696;-575;-4136;-56;-294
712400;2;13;1;1410;-493;3873;298;-3023;221;-237
712410;2;13;1;1410;-461;3951;542;-583;1134;-13
712420;2;13;1;1410;-451;4114;315;720;2221;104
712430;2;13;1;1410;-424;4339;371;622;2858;77
712440;2;13;1;1410;-356;4568;558;297;2669;-147
712450;2;13;1;1410;-335;4693;526;293;1974;-357
712460;2;13;1;1410;-399;4679;191;669;1306;-769
712470;2;13;1;1410;-718;4622;-420;1041;1111;-1085
712480;2;13;1;1410;-1068;4550;-918;996;1345;-911
712490;2;13;1;1410;-1291;4515;-1185;584;1653;-170
712500;2;13;1;1410;-1207;4325;-1269;-294;1617;512
712510;2;13;1;1410;-965;4156;-1067;-1448;1289;702
712520;2;13;1;1410;-797;3950;-634;-2434;859;544
712530;2;13;1;1410;-746;3774;-223;-2876;586;429
712540;2;13;1;1410;-663;3483;225;-2563;482;423
712550;2;13;1;1410;-489;3143;445;-1695;394;338
712560;2;13;1;1410;-367;2836;439;-979;384;207
712570;2;13;1;1410;-339;2707;421;-688;499;99
712580;2;13;1;1410;-322;2765;561;-417;589;131
712590;2;13;1;1410;-334;2864;620;35;474;307
712600;2;13;1;1410;-329;3009;524;362;165;417
712610;2;13;1;1410;-347;3121;322;402;-52;412
712620;2;13;1;1410;-322;3230;101;228;15;248
712630;2;13;1;1410;-354;3320;-37;98;244;40
712640;2;13;1;1410;-373;3296;-141;47;420;-146
712650;2;13;1;1410;-427;3206;-230;-41;451;-359
712660;2;13;1;1410;-483;3080;-244;-194;351;-564
712670;2;13;1;1410;-545;2992;-198;-236;157;-737
712680;2;13;1;1410;-608;2886;-232;-89;29;-808
712690;2;13;1;1410;-585;2764;-266;77;-25;-798
712700;2;13;1;1410;-494;2501;-379;95;-15;-860
712710;2;13;1;1410;-378;2366;-493;49;-24;-989
712720;2;13;1;1410;-253;2174;-521;242;17;-930
712730;2;13;1;1410;-175;2011;-560;926;-4;-838
712740;2;13;1;1410;82;1440;-605;1559;-291;-1124
712750;2;13;1;1410;304;1003;-622;1659;-635;-1543
712760;2;13;1;1410;388;617;-488;2157;-1023;-1980
712770;2;13;1;1410;-100;1108;131;3394;-1207;-1256
712780;2;13;1;1410;-22;637;110;4249;-2095;-452
712790;2;13;1;1410;194;-468;409;4317;-3104;-207
712800;2;13;1;1410;-36;-486;681;4275;-3888;-427
712810;2;13;1;1410;-314;-219;929;4237;-3404;-488
712820;2;13;1;1410;-134;640;807;4562;-1368;-87
712830;2;13;1;1410;-92;1821;593;4932;1006;258
712840;2;13;1;1410;-4;3040;285;5179;2359;782
712850;2;13;1;1410;306;4030;-422;5038;3107;711
712860;2;13;1;1410;539;4861;-770;4282;4020;-318
712870;2;13;1;1410;444;5461;-917;4520;4767;-1733
712880;2;13;1;1410;-406;5834;-1519;5237;5179;-2680
712890;2;13;1;1411;-782;6005;-2134;5433;5679;-3129
712900;2;13;1;1411;-1232;5842;-2340;5410;6078;-3710
712910;2;13;1;1411;-1948;5483;-2665;5445;6304;-4223
712920;2;13;1;1411;-3294;5461;-3701;4834;6470;-3628
712930;2;13;1;1411;-4216;5828;-4708;2655;6620;-433
712940;2;13;1;1411;-4293;7267;-4600;-356;6477;4569
712950;2;13;1;1411;-2975;8130;-3513;-494;5442;8798
712960;2;13;1;1411;-4135;13089;-2295;4050;4379;12036
712970;2;13;1;1411;1091;8926;-1467;10895;4080;10164
712980;2;13;1;1411;1823;7612;-3714;12070;3413;-25
712990;2;13;1;1411;-5;7496;-4674;6605;3741;-5975
713000;2;13;1;1411;-741;6736;-3359;740;3229;-6667
713010;2;13;1;1411;-738;5767;-1996;-1139;2284;-5736
713020;2;13;1;1411;-966;5287;-1671;-214;2141;-5024
713030;2;13;1;1411;-1404;5168;-2051;842;2549;-4150
713040;2;13;1;1411;-1435;5138;-2466;1180;3036;-3367
713050;2;13;1;1411;-1344;5200;-2611;1140;3133;-2800
713060;2;13;1;1411;-1475;5266;-2964;900;3025;-2266
713070;2;13;1;1411;-1434;5189;-3315;128;3029;-1764
713080;2;13;1;1411;-1269;5307;-3265;-294;3281;-1369
713090;2;13;1;1411;-828;5206;-2863;255;2899;-954
713100;2;13;1;1411;-938;5009;-3223;881;2233;-1186
713110;2;13;1;1411;-777;4739;-2827;893;1905;-1283
713120;2;13;1;1411;-550;4511;-2275;1330;1501;-1599
713130;2;13;1;1411;-871;4337;-2161;1711;1116;-1983
713140;2;13;1;1411;-977;4112;-2008;1458;1043;-1952
713150;2;13;1;1411;-1117;4043;-1897;974;1028;-1674
713160;2;13;1;1411;-1207;3971;-1891;391;1003;-1447
713170;2;13;1;1411;-1195;3881;-1964;-101;1135;-1289
713180;2;13;1;1411;-1323;3937;-2217;-917;1504;-839
713190;2;13;1;1411;-1380;3978;-2208;-1421;1596;1
713200;2;13;1;1411;-1369;4201;-2091;-1597;1037;861
713210;2;13;1;1411;-1316;4373;-2066;-1455;215;1623
713220;2;13;1;1411;-1265;4514;-1874;-1204;-725;2167
713230;2;13;1;1411;-1149;4451;-1709;-864;-1801;2246
713240;2;13;1;1411;-1230;4492;-1571;-932;-2681;1830
713250;2;13;1;1411;-1253;4555;-1459;-1271;-3055;1401
713260;2;13;1;1411;-1305;4382;-1427;-1995;-2867;888
713270;2;13;1;1411;-1310;4341;-1256;-2772;-2125;318
713280;2;13;1;1411;-1214;4258;-1036;-3219;-1263;-482
713290;2;13;1;1411;-1273;4304;-757;-3097;-411;-1326
713300;2;13;1;1411;-1145;4215;-604;-2922;-37;-2161
713310;2;13;1;1411;-1385;4230;-532;-2576;347;-2562
713320;2;13;1;1411;-1579;4281;-607;-2148;936;-2505
713330;2;13;1;1411;-1534;4186;-584;-1758;1722;-2283
713340;2;13;1;1411;-1308;4009;-504;-1270;2461;-2299
713350;2;13;1;1411;-1220;3888;-555;-610;3154;-2519
713360;2;13;1;1411;-1081;3514;-671;25;3644;-3035
713370;2;13;1;1411;-925;3213;-870;816;4044;-3795
713380;2;13;1;1411;-689;2811;-1183;1594;4492;-4398
713390;2;13;1;1412;-399;2258;-1389;2354;4733;-4813
713400;2;13;1;1412;-226;1766;-1590;3049;4645;-5006
713410;2;13;1;1412;-69;1368;-1794;3051;3968;-4696
713420;2;13;1;1412;-153;1076;-1993;2190;2563;-3811
713430;2;13;1;1412;-189;896;-2009;711;671;-2617
713440;2;13;1;1412;38;707;-1879;-1081;-1295;-1414
713450;2;13;1;1412;-203;1207;-1674;-2545;-3210;-345
713460;2;13;1;1412;23;1250;-1301;-2871;-4150;565
713470;2;13;1;1412;743;245;-923;-2432;-4760;-575
713480;2;13;1;1412;391;630;-1094;-2665;-5561;-2616
713490;2;13;1;1412;278;1031;-1320;-3785;-6096;-3567
713500;2;13;1;1412;192;1596;-1264;-4617;-6185;-3510
713510;2;13;1;1412;293;1906;-1078;-3928;-5941;-3132
713520;2;13;1;1412;550;2157;-902;-1991;-5744;-2901
713530;2;13;1;1412;709;2482;-986;656;-5516;-3030
713540;2;13;1;1412;675;2678;-1220;2686;-5233;-3485
713550;2;13;1;1412;496;2649;-1491;3397;-4782;-4169
713560;2;13;1;1412;128;2672;-1703;3139;-4128;-4899
713570;2;13;1;1412;-319;2666;-1885;2544;-3119;-5257
713580;2;13;1;1412;-1020;2621;-2157;1842;-1795;-4947
713590;2;13;1;1412;-1804;2779;-2538;1154;-203;-3949
713600;2;13;1;1412;-2415;3238;-2877;409;1450;-2244
713610;2;13;1;1412;-2586;3957;-3089;-164;2978;-34
713620;2;13;1;1412;-2414;4656;-3310;-383;4325;2107
713630;2;13;1;1412;-1987;5248;-3436;64;5683;3524
713640;2;13;1;1412;-1456;5666;-3635;1135;6907;4019
713650;2;13;1;1412;-964;5871;-3935;2299;7831;3734
713660;2;13;1;1412;-462;5904;-4192;2975;8392;3096
713670;2;13;1;1412;-173;5869;-4376;2997;8379;2387
713680;2;13;1;1412;-2;5551;-4540;2231;7799;1286
713690;2;13;1;1412;188;5131;-4762;504;7529;-369
713700;2;13;1;1412;268;4797;-4521;-1724;7723;-2119
713710;2;13;1;1412;67;4623;-3956;-3526;7875;-3253
713720;2;13;1;1412;-114;4418;-3458;-4680;7747;-3659
713730;2;13;1;1412;-192;4112;-3086;-5445;7588;-3542
713740;2;13;1;1412;-292;3721;-2821;-5907;7573;-3332
713750;2;13;1;1412;-332;3437;-2583;-6282;7721;-3114
713760;2;13;1;1412;-443;3203;-2405;-6419;7914;-2805
713770;2;13;1;1412;-526;3105;-2264;-6260;8082;-2406
713780;2;13;1;1412;-628;3201;-2155;-5988;7917;-1764
713790;2;13;1;1412;-697;3205;-2145;-5697;7353;-1029
713800;2;13;1;1412;-658;3157;-2156;-5425;6897;-578
713810;2;13;1;1412;-569;3116;-2136;-5151;6522;-159
713820;2;13;1;1412;-447;3049;-2137;-5069;6060;61
713830;2;13;1;1412;-292;2888;-2151;-5229;5534;-69
713840;2;13;1;1412;-184;2757;-2093;-5523;5103;-284
713850;2;13;1;1412;-131;2644;-2021;-5946;4706;-378
713860;2;13;1;1412;-208;2545;-1813;-6550;4233;-93
713870;2;13;1;1412;-262;2438;-1520;-7149;3407;307
713880;2;13;1;1412;-290;2417;-1246;-7627;2387;815
