timestamp;subject_id;activity;label;seq;ax;ay;az;gx;gy;gz
1227410;2;15;1;2439;-656;3894;-93;479;-2292;-509
1227420;2;15;1;2439;-693;3901;-110;597;-2399;-492
1227430;2;15;1;2439;-705;3933;-129;725;-2480;-448
1227440;2;15;1;2439;-705;3942;-191;829;-2531;-435
1227450;2;15;1;2439;-676;3981;-295;857;-2542;-521
1227460;2;15;1;2439;-689;3992;-346;828;-2543;-674
1227470;2;15;1;2439;-706;4006;-422;717;-2613;-801
1227480;2;15;1;2439;-716;3967;-446;561;-2744;-936
1227490;2;15;1;2439;-738;3943;-483;455;-2872;-1059
1227500;2;15;1;2439;-797;3930;-472;390;-3062;-1191
1227510;2;15;1;2439;-871;3937;-434;435;-3320;-1241
1227520;2;15;1;2439;-929;3934;-450;576;-3616;-1260
1227530;2;15;1;2439;-966;3934;-390;803;-3908;-1264
1227540;2;15;1;2439;-967;3957;-383;1296;-4107;-1229
1227550;2;15;1;2439;-931;4002;-438;1806;-4339;-1229
1227560;2;15;1;2439;-900;4010;-380;2225;-4641;-1250
1227570;2;15;1;2439;-810;4021;-290;2630;-5122;-1259
1227580;2;15;1;2439;-763;4065;-247;3096;-5588;-1268
1227590;2;15;1;2439;-695;4076;-211;3354;-5892;-1408
1227600;2;15;1;2439;-706;4084;-136;3482;-6044;-1635
1227610;2;15;1;2439;-689;4053;-42;3626;-6105;-1893
1227620;2;15;1;2439;-711;4003;65;3752;-6058;-2094
1227630;2;15;1;2439;-750;3956;94;3776;-6038;-2139
1227640;2;15;1;2439;-764;3866;140;3654;-5927;-2075
1227650;2;15;1;2439;-782;3846;184;3496;-5675;-1945
1227660;2;15;1;2439;-768;3858;200;3295;-5263;-1771
1227670;2;15;1;2439;-784;3906;234;3090;-4804;-1654
1227680;2;15;1;2439;-787;3998;198;2909;-4356;-1533
1227690;2;15;1;2439;-816;4131;103;2725;-3992;-1316
1227700;2;15;1;2439;-839;4169;1;2541;-3843;-1203
1227710;2;15;1;2439;-917;4177;-105;2220;-3681;-1145
1227720;2;15;1;2439;-1000;4161;-225;1879;-3498;-1149
1227730;2;15;1;2439;-1054;4109;-237;1597;-3344;-1140
1227740;2;15;1;2439;-1159;4038;-261;1439;-3345;-1162
1227750;2;15;1;2439;-1209;4047;-287;1344;-3347;-1076
1227760;2;15;1;2439;-1249;4069;-371;1295;-3334;-897
1227770;2;15;1;2439;-1227;4036;-354;1091;-3480;-662
1227780;2;15;1;2439;-1197;4006;-289;885;-3846;-467
1227790;2;15;1;2439;-1164;3977;-293;749;-4210;-282
1227800;2;15;1;2439;-1143;3944;-295;549;-4415;-127
1227810;2;15;1;2439;-1156;3903;-230;237;-4486;-10
1227820;2;15;1;2439;-1131;3867;-64;-69;-4476;89
1227830;2;15;1;2439;-1124;3849;66;-139;-4347;223
1227840;2;15;1;2439;-1090;3828;116;-156;-4083;404
1227850;2;15;1;2439;-1076;3806;108;-267;-3803;602
1227860;2;15;1;2439;-1006;3767;73;-495;-3527;811
1227870;2;15;1;2439;-959;3749;41;-764;-3265;988
1227880;2;15;1;2439;-956;3752;59;-1036;-3039;1109
1227890;2;15;1;2439;-924;3768;83;-1292;-2771;1164
1227900;2;15;1;2439;-949;3827;100;-1363;-2441;1162
1227910;2;15;1;2440;-993;3846;10;-1399;-2103;1141
1227920;2;15;1;2440;-1067;3849;-53;-1528;-1828;1140
1227930;2;15;1;2440;-1108;3885;-88;-1655;-1642;1222
1227940;2;15;1;2440;-1144;3876;-71;-1620;-1598;1292
1227950;2;15;1;2440;-1187;3876;-114;-1516;-1657;1319
1227960;2;15;1;2440;-1243;3855;-156;-1421;-1674;1352
1227970;2;15;1;2440;-1334;3826;-172;-1341;-1648;1415
1227980;2;15;1;2440;-1382;3804;-246;-1355;-1596;1450
1227990;2;15;1;2440;-1409;3795;-243;-1432;-1508;1456
1228000;2;15;1;2440;-1437;3787;-235;-1464;-1450;1444
1228010;2;15;1;2440;-1489;3777;-240;-1489;-1397;1418
1228020;2;15;1;2440;-1529;3758;-200;-1476;-1353;1397
1228030;2;15;1;2440;-1586;3746;-206;-1454;-1323;1392
1228040;2;15;1;2440;-1611;3693;-149;-1497;-1317;1326
1228050;2;15;1;2440;-1633;3684;-116;-1523;-1256;1220
1228060;2;15;1;2440;-1690;3696;-66;-1426;-1216;1187
1228070;2;15;1;2440;-1618;3722;-24;-1128;-1322;1300
1228080;2;15;1;2440;-1564;3656;-42;-720;-1680;1285
1228090;2;15;1;2440;-1471;3597;-70;-469;-2236;1141
1228100;2;15;1;2440;-1429;3601;51;-170;-2976;990
1228110;2;15;1;2440;-1404;3595;166;347;-3851;966
1228120;2;15;1;2440;-1364;3603;163;821;-4607;1007
1228130;2;15;1;2440;-1319;3679;264;1220;-5221;1074
1228140;2;15;1;2440;-1220;3824;388;1613;-5703;1151
1228150;2;15;1;2440;-1082;4145;484;2225;-5763;1087
1228160;2;15;1;2440;-957;4493;525;2964;-5227;837
1228170;2;15;1;2440;-800;4869;650;3815;-4173;365
1228180;2;15;1;2440;-673;5141;507;4846;-3175;-244
1228190;2;15;1;2440;-555;5334;27;5639;-2631;-526
1228200;2;15;1;2440;-392;5157;-748;5306;-2669;-386
1228210;2;15;1;2440;-8;4724;-1180;4104;-2864;-312
1228220;2;15;1;2440;107;4309;-1517;2402;-2926;-535
1228230;2;15;1;2440;-68;3988;-1465;-19;-2896;-884
1228240;2;15;1;2440;-311;3753;-896;-2123;-3106;-804
1228250;2;15;1;2440;-463;3673;-168;-3350;-3548;-368
1228260;2;15;1;2440;-567;3697;435;-3489;-3843;268
1228270;2;15;1;2440;-559;3766;789;-2798;-3722;696
1228280;2;15;1;2440;-415;3814;844;-1557;-3195;932
1228290;2;15;1;2440;-180;3840;527;-566;-2427;890
1228300;2;15;1;2440;62;3941;273;-64;-1921;736
1228310;2;15;1;2440;256;4059;61;288;-1998;640
1228320;2;15;1;2440;378;4196;-43;472;-2552;695
1228330;2;15;1;2440;499;4287;43;691;-3307;847
1228340;2;15;1;2440;479;4370;130;905;-4011;912
1228350;2;15;1;2440;362;4465;174;986;-4554;888
1228360;2;15;1;2440;179;4527;225;817;-4929;870
1228370;2;15;1;2440;104;4553;161;429;-5066;771
1228380;2;15;1;2440;-60;4656;98;-37;-4849;785
1228390;2;15;1;2440;-63;4671;75;-269;-4514;1043
1228400;2;15;1;2440;-32;4616;29;-294;-4207;1215
1228409;2;15;1;2441;42;4540;-35;-274;-4056;1286
1228419;2;15;1;2441;114;4443;-81;-250;-4022;1277
1228429;2;15;1;2441;152;4339;-37;-144;-4136;1293
1228439;2;15;1;2441;221;4254;98;42;-4528;1337
1228449;2;15;1;2441;236;4150;190;209;-5065;1432
1228459;2;15;1;2441;249;4056;286;296;-5447;1473
1228469;2;15;1;2441;232;3990;425;273;-5523;1503
1228479;2;15;1;2441;280;3942;613;273;-5345;1508
1228489;2;15;1;2441;303;3951;712;396;-4968;1526
1228499;2;15;1;2441;305;3966;687;429;-4498;1513
1228509;2;15;1;2441;378;3935;613;164;-4120;1431
1228519;2;15;1;2441;391;3883;528;-301;-3846;1284
1228529;2;15;1;2441;317;3858;527;-818;-3565;1131
1228539;2;15;1;2441;250;3807;515;-1154;-3263;1019
1228549;2;15;1;2441;176;3801;538;-1323;-2960;964
1228559;2;15;1;2441;89;3760;550;-1423;-2747;988
1228569;2;15;1;2441;13;3767;470;-1426;-2562;1009
1228579;2;15;1;2441;-54;3812;381;-1391;-2275;913
1228589;2;15;1;2441;-111;3913;292;-1201;-1926;801
1228599;2;15;1;2441;-102;4049;205;-784;-1671;700
1228609;2;15;1;2441;-103;4176;265;-170;-1837;678
1228619;2;15;1;2441;-154;4272;172;393;-2389;739
1228629;2;15;1;2441;-155;4292;81;645;-3017;732
1228639;2;15;1;2441;-86;4309;109;665;-3520;552
1228649;2;15;1;2441;-25;4314;203;742;-3876;278
1228659;2;15;1;2441;-10;4295;242;881;-4125;134
1228669;2;15;1;2441;51;4285;279;1047;-4222;147
1228679;2;15;1;2441;99;4260;265;1166;-4179;226
1228689;2;15;1;2441;237;4221;273;1167;-4008;302
1228699;2;15;1;2441;344;4158;246;1110;-3761;265
1228709;2;15;1;2441;406;4088;206;974;-3588;166
1228719;2;15;1;2441;441;4036;172;684;-3443;78
1228729;2;15;1;2441;441;4013;154;323;-3196;71
1228739;2;15;1;2441;428;4034;227;-20;-2821;79
1228749;2;15;1;2441;400;4041;334;-331;-2483;56
1228759;2;15;1;2441;369;4069;422;-539;-2214;56
1228769;2;15;1;2441;353;4036;409;-657;-1949;86
1228779;2;15;1;2441;352;4013;395;-793;-1637;-3
1228789;2;15;1;2441;316;4024;320;-885;-1285;-138
1228799;2;15;1;2441;323;3997;306;-933;-917;-247
1228809;2;15;1;2441;307;3994;284;-905;-676;-303
1228819;2;15;1;2441;267;4012;272;-814;-576;-305
1228829;2;15;1;2441;216;4072;231;-719;-558;-288
1228839;2;15;1;2441;179;4095;222;-649;-523;-276
1228849;2;15;1;2441;172;4179;190;-554;-496;-287
1228859;2;15;1;2441;132;4222;158;-604;-481;-303
1228869;2;15;1;2441;67;4242;187;-687;-496;-297
1228879;2;15;1;2441;47;4171;259;-595;-515;-313
1228889;2;15;1;2441;7;4074;219;-433;-416;-468
1228899;2;15;1;2441;-34;4023;173;-405;-133;-604
1228909;2;15;1;2442;-61;3972;199;-317;203;-636
1228919;2;15;1;2442;-27;3948;202;-187;429;-584
1228929;2;15;1;2442;-14;3968;262;-77;593;-454
1228939;2;15;1;2442;-30;4023;350;81;647;-259
1228949;2;15;1;2442;-64;4040;402;284;641;-91
1228959;2;15;1;2442;-84;4005;275;415;742;67
1228969;2;15;1;2442;-72;3981;244;382;858;169
1228979;2;15;1;2442;-80;3961;291;382;933;211
1228989;2;15;1;2442;-105;3999;323;522;1044;231
1228999;2;15;1;2442;-129;4023;311;690;1193;285
1229009;2;15;1;2442;-81;4072;231;675;1286;273
1229019;2;15;1;2442;-2;4204;232;618;1261;189
1229029;2;15;1;2442;54;4329;249;594;1087;46
1229039;2;15;1;2442;69;4458;214;645;827;-82
1229049;2;15;1;2442;-7;4495;206;741;566;-169
1229059;2;15;1;2442;-61;4391;191;744;403;-259
1229069;2;15;1;2442;-144;4237;211;605;455;-342
1229079;2;15;1;2442;-162;4072;272;459;630;-384
1229089;2;15;1;2442;-188;3964;326;351;747;-368
1229099;2;15;1;2442;-209;3922;389;282;692;-229
1229109;2;15;1;2442;-213;3887;445;263;470;-1
1229119;2;15;1;2442;-247;3952;498;292;222;263
1229129;2;15;1;2442;-280;4015;620;354;132;476
1229139;2;15;1;2442;-347;4107;713;526;312;615
1229149;2;15;1;2442;-401;4123;776;582;554;625
1229159;2;15;1;2442;-432;4134;835;633;824;526
1229169;2;15;1;2442;-454;4105;724;644;1214;456
1229179;2;15;1;2442;-398;4084;749;711;1588;353
1229189;2;15;1;2442;-402;4080;689;1021;1800;250
1229199;2;15;1;2442;-437;4081;531;1181;1853;200
1229209;2;15;1;2442;-518;4112;451;1054;1690;224
1229219;2;15;1;2442;-570;4096;257;832;1278;299
1229229;2;15;1;2442;-574;4031;45;409;611;332
1229239;2;15;1;2442;-661;4006;-131;102;-202;494
1229249;2;15;1;2442;-704;3945;-230;-159;-833;671
1229259;2;15;1;2442;-823;3948;-104;-125;-1261;872
1229269;2;15;1;2442;-929;3929;93;295;-1655;1129
1229279;2;15;1;2442;-984;3877;-10;740;-1896;1264
1229289;2;15;1;2442;-990;3818;-281;833;-1635;1271
1229299;2;15;1;2442;-932;3763;-373;631;-1126;1140
1229309;2;15;1;2442;-743;3759;-404;672;-782;858
1229319;2;15;1;2442;-528;3785;-536;925;-655;481
1229329;2;15;1;2442;-424;3760;-515;968;-960;307
1229339;2;15;1;2442;-354;3731;-466;725;-1808;279
1229349;2;15;1;2442;-185;3665;-399;461;-2662;183
1229359;2;15;1;2442;-96;3629;-391;462;-2864;-162
1229369;2;15;1;2442;-87;3604;-314;698;-2576;-648
1229379;2;15;1;2442;-182;3612;-107;1051;-2280;-1073
1229389;2;15;1;2442;-284;3642;85;1630;-2159;-1275
1229399;2;15;1;2442;-357;3763;297;2500;-2099;-1199
1229409;2;15;1;2443;-421;3945;349;3417;-2133;-992
1229419;2;15;1;2443;-440;4245;372;3930;-2142;-713
1229429;2;15;1;2443;-353;4616;414;4036;-2171;-498
1229439;2;15;1;2443;-130;4910;280;3747;-2127;-451
1229449;2;15;1;2443;131;5099;209;3184;-2204;-680
1229459;2;15;1;2443;258;5222;184;2667;-2549;-1002
1229469;2;15;1;2443;214;5274;115;2333;-2902;-1337
1229479;2;15;1;2443;37;5131;101;2055;-2862;-1548
1229489;2;15;1;2443;-138;4911;82;1704;-2418;-1590
1229499;2;15;1;2443;-193;4685;58;1330;-1879;-1527
1229509;2;15;1;2443;-266;4436;55;925;-1499;-1503
1229519;2;15;1;2443;-258;4197;15;593;-1233;-1515
1229529;2;15;1;2443;-275;4002;-23;418;-1054;-1407
1229539;2;15;1;2443;-242;3879;-63;359;-984;-1106
1229549;2;15;1;2443;-198;3726;-62;421;-1014;-682
1229559;2;15;1;2443;-200;3630;-109;642;-1157;-410
1229569;2;15;1;2443;-183;3600;-163;836;-1272;-278
1229579;2;15;1;2443;-227;3667;-137;749;-1495;-62
1229589;2;15;1;2443;-291;3855;-57;345;-1859;235
1229599;2;15;1;2443;-319;3927;71;-64;-2108;380
1229609;2;15;1;2443;-278;3840;205;-115;-2071;61
1229619;2;15;1;2443;-258;3760;170;38;-1814;-375
1229629;2;15;1;2443;-348;3736;127;69;-1551;-751
1229639;2;15;1;2443;-480;3781;173;-85;-1481;-747
1229649;2;15;1;2443;-536;3896;262;201;-1723;-605
1229659;2;15;1;2443;-524;3993;224;670;-2101;-519
1229669;2;15;1;2443;-425;3986;231;1109;-2535;-663
1229679;2;15;1;2443;-486;3996;267;1571;-3044;-977
1229689;2;15;1;2443;-659;4042;332;1888;-3600;-1107
1229699;2;15;1;2443;-703;4090;361;2025;-4131;-964
1229709;2;15;1;2443;-672;4088;282;1870;-4441;-929
1229719;2;15;1;2443;-700;4112;276;1477;-4340;-1143
1229729;2;15;1;2443;-745;4165;366;1224;-4015;-1532
1229739;2;15;1;2443;-751;4162;397;1092;-3571;-1968
1229749;2;15;1;2443;-697;4139;383;1036;-3093;-2441
1229759;2;15;1;2443;-666;4129;388;1091;-2804;-2851
1229769;2;15;1;2443;-617;4087;368;1145;-2966;-3119
1229779;2;15;1;2443;-640;4072;303;1027;-3532;-3157
1229789;2;15;1;2443;-688;4028;361;800;-4366;-2988
1229799;2;15;1;2443;-673;3916;472;682;-5210;-2831
1229809;2;15;1;2443;-680;3822;507;804;-5733;-2756
1229819;2;15;1;2443;-648;3783;509;994;-5892;-2718
1229829;2;15;1;2443;-589;3714;513;1132;-5910;-2732
1229839;2;15;1;2443;-442;3617;559;1186;-6003;-2965
1229849;2;15;1;2443;-437;3562;418;1067;-6058;-3385
1229859;2;15;1;2443;-518;3598;395;588;-6120;-3670
1229869;2;15;1;2443;-581;3607;506;126;-6228;-3829
1229879;2;15;1;2443;-589;3593;513;-198;-6202;-4095
1229889;2;15;1;2443;-734;3549;241;-858;-6003;-4568
1229899;2;15;1;2443;-796;3466;236;-1812;-5534;-4914
1229909;2;15;1;2444;-714;3407;171;-2331;-5166;-5022
1229919;2;15;1;2444;-730;3419;-311;-2426;-4671;-4889
1229929;2;15;1;2444;-845;3624;-1134;-2605;-3875;-4167
1229939;2;15;1;2444;-692;3940;-1638;-2560;-2660;-2499
1229949;2;15;1;2444;-330;4154;-1903;-1544;-1473;-950
1229959;2;15;1;2444;264;4138;-2061;266;-952;-455
1229969;2;15;1;2444;266;4410;-2397;1572;-1549;-1512
1229979;2;15;1;2444;136;4557;-1736;1569;-4029;-2498
1229989;2;15;1;2444;-467;4804;-1365;1309;-8555;-2613
1229999;2;15;1;2444;-424;4561;-1789;951;-12061;-1539
1230009;2;15;1;2444;-200;4109;-2158;609;-12085;-935
1230019;2;15;1;2444;-141;4203;-1327;2101;-9883;-1315
1230029;2;15;1;2444;-174;4726;-877;6083;-7682;-1678
1230039;2;15;1;2444;-122;4899;-2127;7957;-5952;-1772
1230049;2;15;1;2444;336;5318;-2264;6681;-4925;-1838
1230059;2;15;1;2444;575;5686;-1452;5935;-5279;-1697
1230069;2;15;1;2444;185;6167;-1151;6048;-6073;-1359
1230079;2;15;1;2444;-64;6429;-993;5761;-5639;-666
1230089;2;15;1;2444;-297;6557;-914;4752;-3652;10
1230099;2;15;1;2444;-232;6199;-806;3426;-867;252
1230109;2;15;1;2444;-60;5682;-817;2595;1296;-610
1230119;2;15;1;2444;-278;5324;-1244;1812;2441;-1469
1230129;2;15;1;2444;-223;4766;-1511;1255;3065;-1915
1230139;2;15;1;2444;-239;4587;-1740;1092;3617;-2567
1230149;2;15;1;2444;-518;4607;-2054;1017;4255;-2686
1230159;2;15;1;2444;-827;4795;-2084;600;5124;-2156
1230169;2;15;1;2444;-1173;4880;-1729;588;5937;-1252
1230179;2;15;1;2444;-1336;4856;-1481;806;6655;-699
1230189;2;15;1;2444;-1418;4772;-1406;936;7518;-648
1230199;2;15;1;2444;-1487;4607;-1318;974;8275;-819
1230209;2;15;1;2444;-1453;4433;-1199;1030;8744;-968
1230219;2;15;1;2444;-1376;4153;-1133;1226;9065;-965
1230229;2;15;1;2444;-1166;3881;-1165;1525;9379;-933
1230239;2;15;1;2444;-944;3613;-1242;1727;9660;-892
1230249;2;15;1;2444;-707;3278;-1440;1803;9937;-881
1230259;2;15;1;2444;-595;3009;-1677;1522;10068;-854
1230269;2;15;1;2444;-616;2793;-1729;763;9991;-733
1230279;2;15;1;2444;-710;2616;-1701;26;9859;-381
1230289;2;15;1;2444;-917;2481;-1702;-789;9778;81
1230299;2;15;1;2444;-1150;2424;-1523;-1698;9641;410
1230309;2;15;1;2444;-1388;2430;-1414;-2267;9503;434
1230319;2;15;1;2444;-1692;2652;-1311;-2553;9456;439
1230329;2;15;1;2444;-1730;2874;-1255;-2412;9474;493
1230339;2;15;1;2444;-1756;3154;-1283;-1839;9614;486
1230349;2;15;1;2444;-1630;3386;-1356;-1047;9795;615
1230359;2;15;1;2444;-1433;3599;-1420;-173;9796;749
1230369;2;15;1;2444;-1001;3716;-1362;773;9398;721
1230379;2;15;1;2444;-619;3664;-1146;1606;8568;310
1230389;2;15;1;2444;-432;3635;-737;2264;7406;-346
1230399;2;15;1;2444;-417;3644;-235;2863;6260;-878
1230409;2;15;1;2445;-495;3705;176;3625;5237;-983
1230419;2;15;1;2445;-333;3663;325;4096;4620;-795
1230429;2;15;1;2445;78;3654;284;4108;4025;-491
1230439;2;15;1;2445;585;3501;266;3761;3202;-493
1230449;2;15;1;2445;1009;3289;-52;3378;1772;-840
1230459;2;15;1;2445;1330;2963;-751;1984;-107;-1362
1230469;2;15;1;2445;1362;2677;-1258;45;-1084;-1692
1230479;2;15;1;2445;1209;2459;-1337;-2469;-1214;-1722
1230489;2;15;1;2445;1026;2209;-897;-3964;-637;-1329
1230499;2;15;1;2445;608;2065;-667;-4605;424;-428
1230509;2;15;1;2445;252;2049;-474;-4885;1773;975
1230519;2;15;1;2445;-83;2045;-430;-4868;3401;2651
1230529;2;15;1;2445;-252;1904;-724;-5024;5096;3904
1230539;2;15;1;2445;-268;1607;-764;-5465;6668;4517
1230549;2;15;1;2445;-261;1383;-848;-5434;8120;4896
1230559;2;15;1;2445;-779;1270;-1249;-4515;9458;5210
1230569;2;15;1;2445;-1432;1436;-2180;-3717;10580;6049
1230579;2;15;1;2445;-2158;2161;-3891;-3129;11655;7521
1230589;2;15;1;2445;-1735;2587;-4653;-3936;11293;9312
1230599;2;15;1;2445;-1066;2874;-3203;-2158;9939;10531
1230609;2;15;1;2445;-1206;2435;-2756;4069;9494;10026
1230619;2;15;1;2445;-994;1939;-4477;9947;11233;6616
1230629;2;15;1;2445;-197;2291;-7106;9698;12077;1397
1230639;2;15;1;2445;202;3083;-8170;4630;9303;-2999
1230649;2;15;1;2445;-294;4129;-7724;474;4868;-5184
1230659;2;15;1;2445;-2239;5604;-6923;-814;3299;-5348
1230669;2;15;1;2445;-4592;7020;-4695;-542;7388;-4127
1230679;2;15;1;2445;-6064;8269;-1209;1268;11092;-1662
1230689;2;15;1;2445;-4754;8756;-1185;3450;7523;1537
1230699;2;15;1;2445;-2216;8101;-3683;1508;4003;3367
1230709;2;15;1;2445;72;6939;-4373;-2984;4538;1995
1230719;2;15;1;2445;1182;5497;-3431;-5303;5959;-1314
1230729;2;15;1;2445;1020;4285;-2573;-4540;6248;-4668
1230739;2;15;1;2445;626;3572;-2581;-2273;5793;-5522
1230749;2;15;1;2445;738;2851;-2334;-473;4866;-4385
1230759;2;15;1;2445;828;2761;-1794;997;2638;-2779
1230769;2;15;1;2445;329;3264;-1523;2256;108;-801
1230779;2;15;1;2445;-201;3805;-1476;2730;-1297;1087
1230789;2;15;1;2445;-373;4457;-1473;2435;-1320;2350
1230799;2;15;1;2445;-331;5210;-1705;1646;-390;3363
1230809;2;15;1;2445;-121;5847;-1810;946;339;4106
1230819;2;15;1;2445;69;6223;-1979;825;454;4306
1230829;2;15;1;2445;4;6227;-2532;678;518;4511
1230839;2;15;1;2445;-394;6433;-2877;-350;872;5060
1230849;2;15;1;2445;188;6190;-2238;-1730;938;5661
1230859;2;15;1;2445;1161;5466;-2074;-1828;168;3627
1230869;2;15;1;2445;1352;5037;-2254;-2094;182;892
1230879;2;15;1;2445;1131;4734;-2010;-2316;105;-970
1230889;2;15;1;2445;762;4545;-1620;-2371;-408;-1212
1230899;2;15;1;2445;717;4178;-1462;-2154;-1340;-682
