timestamp;subject_id;activity;label;seq;ax;ay;az;gx;gy;gz
295427;2;17;2;578;1784;3840;-500;-2277;247;-1039
295437;2;17;2;578;1720;3836;-557;-2873;292;-1115
295447;2;17;2;578;1734;3862;-385;-3323;402;-1105
295457;2;17;2;578;1642;3975;-127;-3372;350;-1059
295467;2;17;2;578;1617;3979;-89;-3351;204;-823
295477;2;17;2;578;1650;3954;40;-3325;161;-711
295487;2;17;2;578;1644;3934;98;-3481;-25;-513
295497;2;17;2;578;1731;3920;36;-3545;13;-491
295507;2;17;2;578;1837;3850;63;-3397;178;-611
295517;2;17;2;578;1916;3875;223;-3202;310;-735
295527;2;17;2;578;1858;3829;242;-2990;368;-755
295537;2;17;2;578;1861;3889;460;-2842;141;-794
295547;2;17;2;578;1825;3812;297;-2775;113;-754
295557;2;17;2;578;1757;3808;413;-2407;127;-729
295567;2;17;2;578;1752;3732;518;-2059;49;-662
295577;2;17;2;578;1634;3712;423;-1624;133;-444
295587;2;17;2;578;1661;3707;442;-1133;170;-363
295597;2;17;2;578;1723;3718;323;-984;152;-385
295607;2;17;2;578;1773;3771;274;-771;361;-348
295617;2;17;2;578;1775;3787;294;-501;444;-337
295627;2;17;2;578;1779;3791;282;-287;582;-377
295637;2;17;2;578;1765;3896;357;-170;578;-392
295647;2;17;2;578;1741;3950;446;-107;560;-275
295657;2;17;2;578;1748;3947;597;-79;557;128
295667;2;17;2;578;1661;3855;526;-25;335;117
295677;2;17;2;578;1589;3760;558;-200;315;262
295687;2;17;2;578;1640;3748;484;-89;269;460
295697;2;17;2;578;1698;3651;341;246;359;516
295707;2;17;2;578;1778;3655;271;407;228;504
295717;2;17;2;578;1782;3658;162;277;58;622
295727;2;17;2;578;1810;3683;231;3;-91;676
295737;2;17;2;578;1817;3786;330;-1;-125;606
295747;2;17;2;578;1788;3892;570;111;-204;547
295757;2;17;2;578;1794;3952;617;287;-372;542
295767;2;17;2;578;1851;3943;558;656;-448;418
295777;2;17;2;578;1862;3925;428;918;-363;216
295787;2;17;2;578;1850;3924;292;1071;-299;-36
295797;2;17;2;578;1765;3903;192;858;-395;-155
295807;2;17;2;578;1690;3866;122;421;-641;-189
295817;2;17;2;578;1619;3833;56;7;-845;-175
295827;2;17;2;578;1560;3759;10;-265;-1046;-120
295837;2;17;2;578;1555;3759;14;-545;-1174;-101
295847;2;17;2;578;1590;3773;92;-938;-1225;-142
295857;2;17;2;578;1605;3802;288;-1240;-1330;-220
295867;2;17;2;578;1604;3839;469;-1329;-1572;-243
295877;2;17;2;578;1621;3840;529;-1195;-1782;-243
295887;2;17;2;578;1654;3794;510;-937;-1979;-290
295897;2;17;2;578;1722;3713;385;-728;-2091;-423
295907;2;17;2;578;1804;3630;315;-680;-2268;-588
295917;2;17;2;578;1799;3595;256;-798;-2556;-716
295927;2;17;2;579;1766;3564;226;-1031;-2852;-848
295937;2;17;2;579;1720;3583;378;-1281;-3174;-920
295947;2;17;2;579;1651;3591;538;-1499;-3605;-902
295957;2;17;2;579;1600;3576;634;-1582;-3987;-880
295967;2;17;2;579;1582;3571;728;-1422;-4226;-889
295977;2;17;2;579;1601;3522;719;-1156;-4388;-869
295987;2;17;2;579;1590;3469;615;-938;-4530;-814
295997;2;17;2;579;1666;3475;521;-941;-4613;-798
296007;2;17;2;579;1763;3530;465;-934;-4787;-787
296017;2;17;2;579;1926;3573;410;-819;-5047;-791
296027;2;17;2;579;2036;3620;322;-833;-5364;-816
296037;2;17;2;579;2042;3711;262;-1041;-5624;-871
296047;2;17;2;579;2025;3749;289;-1189;-5808;-949
296057;2;17;2;579;2012;3770;307;-1195;-6018;-1006
296067;2;17;2;579;1977;3806;255;-1204;-6229;-1005
296077;2;17;2;579;1957;3756;136;-1319;-6508;-950
296087;2;17;2;579;1942;3714;91;-1566;-6814;-792
296097;2;17;2;579;1931;3684;-6;-1908;-7144;-546
296107;2;17;2;579;1989;3594;-121;-2241;-7329;-330
296117;2;17;2;579;2088;3542;-216;-2572;-7362;-229
296127;2;17;2;579;2164;3468;-213;-2935;-7437;-154
296137;2;17;2;579;2106;3405;-233;-3298;-7568;-33
296147;2;17;2;579;2076;3328;-251;-3647;-7765;186
296157;2;17;2;579;1999;3245;-190;-3891;-8017;457
296167;2;17;2;579;1958;3186;-231;-4020;-8245;717
296177;2;17;2;579;1951;3174;-319;-4324;-8285;906
296187;2;17;2;579;2020;3204;-328;-4764;-8204;1084
296197;2;17;2;579;2176;3277;-23;-5058;-8189;1112
296207;2;17;2;579;2317;3415;214;-5047;-8381;1107
296217;2;17;2;579;2435;3587;501;-4628;-8606;1089
296227;2;17;2;579;2605;3748;695;-3930;-8834;1036
296237;2;17;2;579;2759;3872;680;-3247;-8890;897
296247;2;17;2;579;2843;3969;611;-2784;-8667;591
296257;2;17;2;579;2841;4023;457;-2303;-8270;98
296267;2;17;2;579;2581;4078;314;-1719;-7715;-360
296277;2;17;2;579;2305;4089;18;-701;-7419;-487
296287;2;17;2;579;1943;4281;-316;294;-7160;-736
296297;2;17;2;579;1581;4575;-722;870;-7229;-194
296307;2;17;2;579;1247;4501;-1265;593;-7575;488
296317;2;17;2;579;1028;4632;-1413;-386;-7713;1146
296327;2;17;2;579;983;4676;-1320;-1098;-7697;1583
296337;2;17;2;579;834;4803;-914;-1682;-7669;1899
296347;2;17;2;579;677;4845;-336;-2387;-7836;2439
296357;2;17;2;579;603;4834;213;-2974;-7942;2893
296367;2;17;2;579;591;4829;724;-3491;-7178;3016
296377;2;17;2;579;930;4771;1455;-3300;-5658;2424
296387;2;17;2;579;1489;4741;1895;-1755;-4186;1320
296397;2;17;2;579;1797;4652;1735;282;-3262;333
296407;2;17;2;579;2121;4536;1284;2398;-3036;-407
296417;2;17;2;579;2358;4257;623;3765;-4018;-1106
296427;2;17;2;580;1991;4384;4;4212;-5200;-1314
296437;2;17;2;580;1375;4183;-451;3732;-6655;-1062
296447;2;17;2;580;624;4324;-1061;2197;-7201;-945
296457;2;17;2;580;-18;4409;-1227;527;-6784;-829
296467;2;17;2;580;-361;4520;-1050;-829;-6223;-358
296477;2;17;2;580;-200;4434;-802;-1677;-5842;-51
296487;2;17;2;580;402;4447;-542;-2328;-5727;88
296497;2;17;2;580;890;4299;-493;-2944;-5816;45
296507;2;17;2;580;1208;4077;-402;-3733;-5858;-263
296517;2;17;2;580;1376;3869;-67;-4342;-5820;-720
296527;2;17;2;580;1344;3730;315;-4365;-5718;-1218
296537;2;17;2;580;1207;3644;491;-4104;-5645;-1441
296547;2;17;2;580;1152;3512;634;-3582;-5409;-1557
296557;2;17;2;580;1092;3448;769;-2991;-5217;-1550
296567;2;17;2;580;1085;3423;803;-2335;-5132;-1372
296577;2;17;2;580;1146;3405;692;-1781;-5041;-1195
296587;2;17;2;580;1152;3440;562;-1442;-4864;-950
296597;2;17;2;580;1280;3484;422;-1122;-4615;-882
296607;2;17;2;580;1267;3633;349;-919;-4467;-814
296617;2;17;2;580;1279;3771;216;-830;-4477;-608
296627;2;17;2;580;1307;3815;17;-663;-4371;-553
296637;2;17;2;580;1253;3854;-225;-470;-4195;-623
296647;2;17;2;580;1159;3952;-345;-470;-4087;-582
296657;2;17;2;580;976;4033;-429;-693;-4216;-235
296667;2;17;2;580;938;4021;-525;-986;-4431;222
296677;2;17;2;580;987;4027;-659;-1423;-4469;537
296687;2;17;2;580;1040;4001;-696;-2024;-4361;722
296697;2;17;2;580;1155;3989;-654;-2616;-4099;782
296707;2;17;2;580;1275;3979;-521;-3124;-3911;712
296717;2;17;2;580;1367;3965;-335;-3220;-3848;657
296727;2;17;2;580;1415;3957;-197;-2980;-3861;663
296737;2;17;2;580;1491;3907;-74;-2545;-3889;565
296747;2;17;2;580;1506;3896;-91;-2139;-3896;429
296757;2;17;2;580;1501;3870;-59;-1853;-3852;247
296767;2;17;2;580;1398;3862;-2;-1603;-3727;102
296777;2;17;2;580;1284;3851;154;-1238;-3548;-50
296787;2;17;2;580;1159;3881;264;-783;-3483;-70
296797;2;17;2;580;1104;3902;239;-342;-3436;-10
296807;2;17;2;580;1086;3933;149;58;-3210;15
296817;2;17;2;580;1203;3892;4;498;-2852;-29
296827;2;17;2;580;1312;3935;-105;1072;-2548;-203
296837;2;17;2;580;1432;4056;-221;1608;-2312;-400
296847;2;17;2;580;1468;4041;-287;1948;-2307;-583
296857;2;17;2;580;1410;4036;-513;1946;-2537;-665
296867;2;17;2;580;1365;3945;-825;1497;-2791;-742
296877;2;17;2;580;1017;4130;-1023;886;-2831;-611
296887;2;17;2;580;953;4036;-989;233;-2964;-246
296897;2;17;2;580;934;4049;-948;-368;-3279;185
296907;2;17;2;580;941;4039;-1003;-715;-3567;572
296917;2;17;2;580;1011;4036;-1123;-1225;-3667;874
296927;2;17;2;581;1165;4082;-1082;-1810;-3751;1115
296937;2;17;2;581;1338;4114;-1052;-2400;-3949;1407
296947;2;17;2;581;1622;4120;-923;-2906;-4126;1520
296957;2;17;2;581;1862;4073;-766;-3313;-4067;1399
296967;2;17;2;581;1961;3979;-506;-3412;-3989;999
296977;2;17;2;581;1910;3865;-312;-3291;-3881;602
296987;2;17;2;581;1791;3761;-305;-3147;-3872;321
296997;2;17;2;581;1623;3587;-457;-3021;-3680;187
297007;2;17;2;581;1601;3460;-496;-3114;-3309;134
297017;2;17;2;581;1574;3406;-290;-3373;-3077;276
297027;2;17;2;581;1662;3507;11;-3191;-3102;456
297037;2;17;2;581;1678;3684;183;-2598;-2963;624
297047;2;17;2;581;1755;3821;659;-1321;-2726;646
297057;2;17;2;581;1809;3923;717;394;-2428;502
297067;2;17;2;581;1911;3893;425;1478;-2097;258
297077;2;17;2;581;1901;3867;153;1855;-1812;-67
297087;2;17;2;581;1864;3876;-3;1811;-1706;-281
297097;2;17;2;581;1828;3929;-65;1565;-1700;-403
297107;2;17;2;581;1748;3967;-137;1314;-1610;-584
297117;2;17;2;581;1606;3985;-101;959;-1527;-584
297127;2;17;2;581;1501;3919;-49;596;-1446;-578
297137;2;17;2;581;1491;3857;-17;305;-1407;-607
297147;2;17;2;581;1435;3849;-38;-82;-1380;-624
297157;2;17;2;581;1406;3769;87;-611;-1590;-461
297167;2;17;2;581;1326;3727;199;-895;-1883;-296
297177;2;17;2;581;1203;3703;328;-993;-2164;-97
297187;2;17;2;581;1112;3776;411;-1050;-2230;109
297197;2;17;2;581;1073;3747;376;-1130;-1940;174
297207;2;17;2;581;1142;3817;366;-1213;-1603;85
297217;2;17;2;581;1191;3936;298;-1363;-1482;112
297227;2;17;2;581;1338;3955;143;-1454;-1452;107
297237;2;17;2;581;1276;4213;138;-1371;-1608;126
297247;2;17;2;581;1194;4625;327;-1020;-1961;574
297257;2;17;2;581;1368;4831;645;-189;-2500;927
297267;2;17;2;581;1481;4778;320;1848;-2732;497
297277;2;17;2;581;1299;4611;-678;3664;-2556;-290
297287;2;17;2;581;1088;4526;-1512;3758;-2511;-857
297297;2;17;2;581;1043;4217;-2029;1657;-3085;-813
297307;2;17;2;581;888;4008;-2163;-1301;-3986;-385
297317;2;17;2;581;807;3879;-1703;-4864;-5089;340
297327;2;17;2;581;809;3776;-645;-7221;-5933;917
297337;2;17;2;581;870;3756;229;-7654;-6230;1034
297347;2;17;2;581;964;3681;671;-6777;-6251;968
297357;2;17;2;581;1110;3715;973;-5075;-5857;695
297367;2;17;2;581;1242;3694;811;-3190;-5229;405
297377;2;17;2;581;1429;3612;477;-1974;-4596;90
297387;2;17;2;581;1474;3597;128;-1688;-4292;-128
297397;2;17;2;581;1488;3699;-52;-1868;-4221;-277
297407;2;17;2;581;1459;3821;-139;-1996;-4267;-361
297417;2;17;2;581;1448;3936;-175;-1913;-4400;-441
297427;2;17;2;582;1492;4047;-301;-1852;-4506;-503
297437;2;17;2;582;1494;4101;-364;-1891;-4583;-551
297447;2;17;2;582;1556;4071;-381;-2042;-4702;-579
297457;2;17;2;582;1608;4019;-409;-2320;-4632;-624
297467;2;17;2;582;1685;3832;-484;-2466;-4352;-868
297477;2;17;2;582;1580;3742;-571;-2181;-3764;-1299
297487;2;17;2;582;1466;3589;-633;-2133;-3337;-1542
297497;2;17;2;582;1352;3595;-704;-2872;-3257;-1536
297507;2;17;2;582;1302;3664;-339;-3903;-3498;-1130
297517;2;17;2;582;1529;3574;243;-4024;-4094;-630
297527;2;17;2;582;1700;3842;678;-3429;-4719;-117
297537;2;17;2;582;2013;3772;911;-2736;-5235;197
297547;2;17;2;582;2039;4011;978;-2178;-5469;181
297557;2;17;2;582;2093;3946;913;-1794;-5241;383
297567;2;17;2;582;1837;3921;778;-1337;-4557;46
297577;2;17;2;582;1609;3989;757;-514;-3588;-220
297587;2;17;2;582;1401;4026;549;644;-2676;-548
297597;2;17;2;582;1317;4125;276;1393;-1987;-575
297607;2;17;2;582;1252;4170;-38;1637;-1589;-433
297617;2;17;2;582;1295;4217;-254;1505;-1461;-196
297627;2;17;2;582;1333;4159;-390;1204;-1499;85
297637;2;17;2;582;1344;4048;-440;670;-1597;321
297647;2;17;2;582;1354;3880;-314;-9;-1603;451
297657;2;17;2;582;1347;3755;5;-497;-1627;532
297667;2;17;2;582;1277;3713;253;-629;-1569;564
297677;2;17;2;582;1249;3644;460;-496;-1496;580
297687;2;17;2;582;1244;3607;548;-458;-1373;576
297697;2;17;2;582;1251;3624;737;-366;-1410;568
297707;2;17;2;582;1300;3653;739;-212;-1480;577
297717;2;17;2;582;1364;3610;736;-56;-1553;458
297727;2;17;2;582;1402;3733;630;18;-1658;265
297737;2;17;2;582;1429;3808;613;46;-1753;36
297747;2;17;2;582;1375;3945;697;11;-2104;-131
297757;2;17;2;582;1259;4039;695;37;-2534;-133
297767;2;17;2;582;1249;4036;632;204;-2762;-232
297777;2;17;2;582;1242;4071;511;303;-2870;-329
297787;2;17;2;582;1284;4060;499;189;-2968;-408
297797;2;17;2;582;1349;4021;485;-54;-3211;-424
297807;2;17;2;582;1413;3956;426;-387;-3374;-475
297817;2;17;2;582;1398;3868;433;-861;-3410;-536
297827;2;17;2;582;1329;3811;498;-1433;-3242;-596
297837;2;17;2;582;1274;3826;715;-1887;-3086;-613
297847;2;17;2;582;1207;3895;810;-1962;-3068;-403
297857;2;17;2;582;1279;3919;776;-1689;-3109;-211
297867;2;17;2;582;1369;3981;592;-1534;-3173;-34
297877;2;17;2;582;1473;4013;360;-1594;-3306;72
297887;2;17;2;582;1507;4091;213;-1857;-3539;140
297897;2;17;2;582;1537;4142;138;-2122;-3798;218
297907;2;17;2;582;1574;4156;66;-2188;-3961;222
297917;2;17;2;582;1552;4149;-80;-2174;-3967;90
297927;2;17;2;583;1518;4185;-175;-2549;-3943;-47
297937;2;17;2;583;1549;4169;-182;-3171;-3985;-138
297947;2;17;2;583;1638;4158;-69;-3572;-4094;-199
297957;2;17;2;583;1784;4325;198;-3596;-4308;-240
297967;2;17;2;583;1993;4617;664;-3052;-4631;-148
297977;2;17;2;583;2171;4790;942;-1506;-4888;-281
297987;2;17;2;583;2148;4939;696;150;-4902;-582
297997;2;17;2;583;2094;4974;256;819;-4914;-1031
298007;2;17;2;583;1811;5033;-47;1294;-4869;-1531
298017;2;17;2;583;1369;5030;-330;2438;-4400;-1908
298027;2;17;2;583;955;5177;-860;3341;-4258;-1801
298037;2;17;2;583;704;4911;-1462;2977;-4394;-1297
298047;2;17;2;583;536;4620;-1926;942;-4548;-761
298057;2;17;2;583;574;4307;-1889;-2085;-4815;-279
298067;2;17;2;583;649;4088;-1489;-5622;-5362;298
298077;2;17;2;583;569;3716;-1120;-8152;-5952;415
298087;2;17;2;583;438;3597;-539;-8668;-6234;303
298097;2;17;2;583;261;3428;-177;-7212;-6182;-218
298107;2;17;2;583;164;3668;277;-4854;-6118;-407
298117;2;17;2;583;125;3446;288;-2591;-6510;-136
298127;2;17;2;583;89;3422;191;-899;-6742;-169
298137;2;17;2;583;221;3432;222;385;-6899;-186
298147;2;17;2;583;371;3635;180;1351;-7034;-117
298157;2;17;2;583;553;3781;175;2040;-7181;-75
298167;2;17;2;583;612;3941;91;2465;-7129;-216
298177;2;17;2;583;644;4094;17;2671;-6878;-366
298187;2;17;2;583;668;4192;-58;2830;-6685;-591
298197;2;17;2;583;499;4312;-289;2853;-6496;-758
298207;2;17;2;583;407;4345;-578;2610;-6313;-876
298217;2;17;2;583;194;4270;-910;2259;-6200;-850
298227;2;17;2;583;50;4132;-1279;1536;-6052;-712
298237;2;17;2;583;69;3974;-1477;139;-6099;-354
298247;2;17;2;583;112;3850;-1502;-1614;-6294;47
298257;2;17;2;583;274;3790;-1214;-3182;-6560;371
298267;2;17;2;583;174;3798;-838;-4215;-6941;616
298277;2;17;2;583;74;3793;-442;-4537;-7121;789
298287;2;17;2;583;16;3844;-74;-4271;-7066;840
298297;2;17;2;583;57;3854;92;-3462;-6831;853
298307;2;17;2;583;182;3919;120;-2487;-6437;710
298317;2;17;2;583;352;3980;31;-1441;-6179;566
298327;2;17;2;583;488;3967;-225;-749;-5979;398
298337;2;17;2;583;525;4025;-440;-668;-5892;284
298347;2;17;2;583;534;4051;-491;-992;-5966;192
298357;2;17;2;583;459;4093;-516;-1254;-6204;188
298367;2;17;2;583;365;4143;-505;-1435;-6357;235
298377;2;17;2;583;287;4116;-489;-1638;-6491;278
298387;2;17;2;583;263;4166;-380;-1777;-6536;377
298397;2;17;2;583;345;4160;-190;-1931;-6562;485
298407;2;17;2;583;387;4181;0;-1939;-6497;493
298417;2;17;2;583;520;4158;52;-1682;-6227;417
298427;2;17;2;584;594;4095;56;-1493;-5971;240
298437;2;17;2;584;673;4033;156;-1452;-5469;190
298447;2;17;2;584;629;3955;129;-1297;-5086;93
298457;2;17;2;584;692;3856;38;-1058;-4694;101
298467;2;17;2;584;726;3831;-51;-1048;-4480;116
298477;2;17;2;584;665;3895;-61;-1409;-4539;369
298487;2;17;2;584;630;3906;-32;-1857;-4719;740
298497;2;17;2;584;580;3914;10;-2248;-4896;1112
298507;2;17;2;584;682;3900;22;-2594;-4911;1401
298517;2;17;2;584;700;3874;-135;-3044;-4693;1640
298527;2;17;2;584;854;3810;-138;-3731;-4118;1632
298537;2;17;2;584;1003;3773;-12;-4628;-3762;1605
298547;2;17;2;584;1198;3876;246;-5382;-3584;1578
298557;2;17;2;584;1514;4103;603;-5091;-3275;1393
298567;2;17;2;584;1816;4482;1141;-3128;-2773;964
298577;2;17;2;584;1737;4900;1408;-230;-2644;464
298587;2;17;2;584;1371;5000;843;2282;-2494;143
298597;2;17;2;584;802;4890;-379;3510;-2004;-136
298607;2;17;2;584;221;4662;-1558;3344;-914;-260
298617;2;17;2;584;-205;4575;-2281;1385;88;-275
298627;2;17;2;584;-253;4677;-2345;-1463;473;222
298637;2;17;2;584;229;4387;-1959;-3550;-313;859
298647;2;17;2;584;719;4277;-1587;-4536;-1681;1412
298657;2;17;2;584;1333;4014;-809;-4358;-3445;1966
298667;2;17;2;584;1164;4016;559;-2605;-4788;2065
298677;2;17;2;584;1043;4113;1432;-443;-5319;2059
298687;2;17;2;584;1116;3855;948;1776;-5070;1738
298697;2;17;2;584;1162;3438;186;1766;-4071;1246
298707;2;17;2;584;1026;3429;-39;535;-3079;626
298717;2;17;2;584;822;3737;163;64;-2535;396
298727;2;17;2;584;684;4039;246;691;-2663;841
298737;2;17;2;584;686;4132;17;1465;-2962;1334
298747;2;17;2;584;700;4138;-217;1694;-3156;1554
298757;2;17;2;584;752;4186;-353;1263;-3219;1627
298767;2;17;2;584;823;4233;-291;632;-3185;1494
298777;2;17;2;584;873;4226;-161;128;-3176;1238
298787;2;17;2;584;956;4206;-5;-85;-3263;925
298797;2;17;2;584;885;4127;55;-39;-3423;636
298807;2;17;2;584;783;4071;161;172;-3651;450
298817;2;17;2;584;695;4059;222;377;-3986;324
298827;2;17;2;584;687;4113;190;428;-4313;347
298837;2;17;2;584;652;4119;144;218;-4574;462
298847;2;17;2;584;684;4106;110;-221;-4809;572
298857;2;17;2;584;764;4090;38;-539;-5018;618
298867;2;17;2;584;934;4066;-129;-919;-4961;437
298877;2;17;2;584;985;3969;-311;-1250;-4913;80
298887;2;17;2;584;1076;4001;-466;-1568;-4970;-460
298897;2;17;2;584;1054;3875;-671;-2008;-5056;-663
298907;2;17;2;584;938;3825;-856;-2322;-5108;-935
298917;2;17;2;584;796;3655;-934;-2385;-5042;-1092
298927;2;17;2;585;766;3507;-897;-2522;-5101;-1140
298937;2;17;2;585;835;3420;-651;-2524;-5383;-1098
298947;2;17;2;585;931;3314;-376;-2166;-5855;-1008
298957;2;17;2;585;1036;3204;-252;-1632;-6364;-927
298967;2;17;2;585;1086;3193;-179;-1132;-6641;-886
298977;2;17;2;585;1211;3299;-50;-585;-6611;-1077
298987;2;17;2;585;1389;3300;-117;-351;-6482;-1406
298997;2;17;2;585;1197;3471;-161;-363;-6237;-1727
299007;2;17;2;585;791;3876;-206;-199;-6215;-1538
299017;2;17;2;585;613;4241;-188;128;-6195;-1008
299027;2;17;2;585;532;4797;-50;773;-5980;-576
299037;2;17;2;585;732;5025;152;1419;-5568;-219
299047;2;17;2;585;714;5339;-18;2736;-5101;-13
299057;2;17;2;585;843;5234;-715;3924;-4828;1
299067;2;17;2;585;1048;5011;-1507;4485;-4497;-68
299077;2;17;2;585;1442;4503;-2355;3768;-4623;-304
299087;2;17;2;585;1557;4195;-2804;1376;-5111;-361
299097;2;17;2;585;1379;3995;-2861;-1722;-5744;-180
299107;2;17;2;585;1243;3705;-2180;-4469;-6178;89
299117;2;17;2;585;1067;3782;-906;-6043;-6713;304
299127;2;17;2;585;843;4101;529;-5593;-7196;404
299137;2;17;2;585;860;4274;1479;-2317;-6310;400
299147;2;17;2;585;835;4337;957;1511;-4459;155
299157;2;17;2;585;910;4230;316;3029;-3026;10
299167;2;17;2;585;1275;3921;-183;2969;-2234;-138
299177;2;17;2;585;1427;3814;-658;2538;-1437;-427
299187;2;17;2;585;1270;3727;-766;2322;-585;-718
299197;2;17;2;585;1023;3680;-650;2551;-120;-1098
299207;2;17;2;585;682;3782;-613;2825;-167;-1148
299217;2;17;2;585;440;3797;-640;2967;-344;-963
299227;2;17;2;585;186;3778;-582;2886;-283;-743
299237;2;17;2;585;22;3734;-419;2755;-182;-503
299247;2;17;2;585;-40;3684;-336;3015;-116;-258
299257;2;17;2;585;5;3603;-347;3474;36;-71
299267;2;17;2;585;108;3530;-439;3755;54;77
299277;2;17;2;585;152;3498;-655;3735;266;180
299287;2;17;2;585;8;3589;-712;3600;540;259
299297;2;17;2;585;16;3625;-848;3533;481;523
299307;2;17;2;585;290;3748;-883;3413;315;669
299317;2;17;2;585;466;3784;-1023;3207;14;764
299327;2;17;2;585;682;3800;-1108;2756;-104;659
299337;2;17;2;585;815;3847;-1201;2264;-196;382
299347;2;17;2;585;890;3847;-1094;1821;-63;-12
299357;2;17;2;585;833;3787;-906;1602;-49;-333
299367;2;17;2;585;762;3704;-843;1787;-61;-693
299377;2;17;2;585;622;3514;-855;2225;78;-858
299387;2;17;2;585;488;3358;-933;2555;175;-768
299397;2;17;2;585;471;3180;-996;2765;317;-748
299407;2;17;2;585;366;3110;-1153;2850;833;-707
299417;2;17;2;585;421;2996;-1001;2862;1723;-824
299427;2;17;2;586;379;3289;-835;2831;2337;-1003
299437;2;17;2;586;518;3498;-769;3251;2434;-869
299447;2;17;2;586;721;3527;-951;3731;2493;-480
299457;2;17;2;586;1148;3680;-1200;4028;3056;-454
299467;2;17;2;586;1487;3969;-1182;4835;3562;-558
299477;2;17;2;586;1776;4122;-1144;6507;3358;-573
299487;2;17;2;586;1778;4370;-1330;8588;2622;-722
299497;2;17;2;586;1818;4496;-1884;10696;1702;-1080
299507;2;17;2;586;1644;4360;-2897;11949;1410;-1209
299517;2;17;2;586;1351;3870;-3555;12633;1813;-2216
299527;2;17;2;586;1161;3930;-3731;12917;2077;-2488
299537;2;17;2;586;1232;3511;-3876;12351;1814;-1847
299547;2;17;2;586;1449;3157;-3868;10596;1575;-916
299557;2;17;2;586;1684;2994;-3672;7633;1458;-105
299567;2;17;2;586;1893;2932;-3010;4196;1980;437
299577;2;17;2;586;1870;3210;-1736;2059;2622;633
299587;2;17;2;586;1803;3705;-825;2661;3541;541
299597;2;17;2;586;1658;3924;-599;4325;4109;435
299607;2;17;2;586;1845;3601;-974;5828;4020;500
299617;2;17;2;586;1802;3400;-1596;6469;3651;676
299627;2;17;2;586;1797;3117;-1940;6691;2829;996
299637;2;17;2;586;1319;2976;-2800;6420;2059;1263
299647;2;17;2;586;918;2764;-3136;5178;1543;1925
299657;2;17;2;586;1007;2769;-2836;4036;1234;2319
299667;2;17;2;586;1114;3069;-2260;3333;729;2696
299677;2;17;2;586;1329;3194;-1611;3375;31;2956
299687;2;17;2;586;1706;3356;-1486;4257;-451;2851
299697;2;17;2;586;1924;3298;-1841;4626;-435;2533
299707;2;17;2;586;2232;3203;-2225;4118;-83;1817
299717;2;17;2;586;2282;3138;-2104;3416;449;785
299727;2;17;2;586;2052;3280;-1855;3435;735;-112
299737;2;17;2;586;1784;3218;-1530;3902;517;-355
299747;2;17;2;586;1306;3059;-1660;4774;126;-403
299757;2;17;2;586;999;2898;-1754;5340;-279;101
299767;2;17;2;586;931;2665;-1995;5309;-600;757
299777;2;17;2;586;1312;2466;-2019;5103;-932;1219
299787;2;17;2;586;1629;2484;-2028;5002;-1320;1196
299797;2;17;2;586;2116;2455;-2218;4951;-1649;1001
299807;2;17;2;586;2029;2615;-2113;4099;-1913;595
299817;2;17;2;586;1800;2771;-1857;3572;-2425;483
299827;2;17;2;586;1509;2850;-1584;3583;-2714;497
299837;2;17;2;586;1271;2818;-1463;3722;-2874;630
299847;2;17;2;586;1220;2768;-1703;4150;-2146;462
299857;2;17;2;586;1315;2530;-1796;4071;-1190;92
299867;2;17;2;586;1240;3075;-1887;3310;-560;-333
299877;2;17;2;586;1138;3143;-1492;3333;-840;-115
299887;2;17;2;586;1199;3406;-2039;3725;-1580;274
299897;2;17;2;586;1488;2839;-2226;4103;-1990;629
299907;2;17;2;586;1803;2130;-2304;3761;-2757;756
299917;2;17;2;586;1734;1855;-2214;3113;-3147;1080
299927;2;17;2;587;1523;1671;-1847;2751;-2647;1134
299937;2;17;2;587;1244;1733;-1531;2441;-2287;1242
299947;2;17;2;587;1078;1942;-1303;1873;-2186;1360
299957;2;17;2;587;697;2370;-974;1280;-2450;1374
299967;2;17;2;587;336;2552;-584;1236;-3153;1528
299977;2;17;2;587;229;2446;-576;1647;-3821;1766
299987;2;17;2;587;729;1541;-1011;2046;-3287;1406
299997;2;17;2;587;1461;418;-1059;2218;-1787;524
300007;2;17;2;587;2108;-444;-1134;2804;-2;-474
300017;2;17;2;587;2173;-1129;-1180;4276;1856;-1677
300027;2;17;2;587;1522;-1242;-1377;6011;2705;-2064
300037;2;17;2;587;-170;-254;-2351;7661;2428;-1006
300047;2;17;2;587;-1164;507;-3587;9562;1573;1316
300057;2;17;2;587;-500;775;-5622;10554;1447;2899
300067;2;17;2;587;789;1297;-7453;9699;2175;3718
300077;2;17;2;587;2379;780;-8537;9483;3723;3291
300087;2;17;2;587;3493;708;-8811;9594;4102;1824
300097;2;17;2;587;3296;869;-7317;8492;2421;133
300107;2;17;2;587;1424;938;-3672;9510;135;261
300117;2;17;2;587;11;286;-1132;14013;-304;922
300127;2;17;2;587;-493;-330;-840;15313;1457;1460
300137;2;17;2;587;-912;428;-1647;10009;3547;1859
300147;2;17;2;587;-148;1715;-2105;6404;4775;1785
300157;2;17;2;587;1804;1957;-3427;8744;4882;1441
300167;2;17;2;587;3469;826;-5382;11260;3360;1689
300177;2;17;2;587;3905;-454;-6066;12503;1904;1245
300187;2;17;2;587;2662;-1155;-5865;13839;722;452
300197;2;17;2;587;596;-1223;-5283;13692;70;150
300207;2;17;2;587;-1205;-901;-3754;13483;138;121
300217;2;17;2;587;-1582;-594;-2735;14014;1164;218
300227;2;17;2;587;-817;-54;-2518;13949;2429;-237
300237;2;17;2;587;220;721;-2448;12926;3193;-567
300247;2;17;2;587;1681;433;-2764;10521;3635;-334
300257;2;17;2;587;3252;-630;-4311;5799;4637;-1163
300267;2;17;2;587;3908;-1667;-5782;-1912;6419;-3428
300277;2;17;2;587;3551;-1621;-4601;-7523;7172;-6125
300287;2;17;2;587;1861;-932;-1613;-6002;5816;-6649
300297;2;17;2;587;546;-1521;-4672;-891;3519;-4191
300307;2;17;2;587;652;-3154;-5809;-1277;3152;-881
300317;2;17;2;587;1741;-3321;-7112;1648;2065;212
300327;2;17;2;587;3305;-1673;-6388;1788;-22;117
300337;2;17;2;587;3163;-616;-4644;669;-5477;471
300347;2;17;2;587;2345;-1148;-2837;2472;-10414;764
300357;2;17;2;587;2105;-4359;-1910;10139;-12927;1613
300367;2;17;2;587;1225;-6005;-3403;13395;-12671;2248
300377;2;17;2;587;-110;-5026;-4962;5915;-10129;2152
300387;2;17;2;587;-1114;-3709;-4440;-4589;-6711;2078
300397;2;17;2;587;-1205;-2358;-3407;-7800;-5125;2479
300407;2;17;2;587;-145;-1329;-4128;-4642;-4923;3018
300417;2;17;2;587;1254;-1134;-4500;384;-6462;4093
300427;2;17;2;588;2280;-2570;-5807;3048;-9390;5312
300437;2;17;2;588;2449;-3839;-6823;498;-11994;6873
300447;2;17;2;588;1834;-4574;-6117;-4319;-13448;7778
300457;2;17;2;588;883;-4202;-5272;-7652;-13848;8406
300467;2;17;2;588;410;-3749;-4307;-9175;-12884;8560
300477;2;17;2;588;306;-3049;-3489;-8849;-11383;8792
300487;2;17;2;588;889;-2202;-2875;-7184;-10222;9099
300497;2;17;2;588;1501;-1593;-3226;-6550;-9238;8697
300507;2;17;2;588;2162;-1936;-3412;-5539;-8195;7088
300517;2;17;2;588;2638;-1662;-3264;-5481;-8154;5148
300527;2;17;2;588;2184;-1773;-3192;-5355;-8461;2929
300537;2;17;2;588;991;-2098;-2745;-1849;-7885;-284
300547;2;17;2;588;-317;-2027;-2779;3063;-7663;-2177
300557;2;17;2;588;-1264;-2667;-3734;6788;-7238;-2372
300567;2;17;2;588;-1326;-3718;-4749;9468;-5644;-2360
300577;2;17;2;588;-571;-4781;-5533;10791;-2800;-2883
300587;2;17;2;588;557;-5149;-6009;11016;80;-3349
300597;2;17;2;588;783;-4704;-6575;10224;1402;-2448
300607;2;17;2;588;909;-4074;-8686;7650;1936;-2025
300617;2;17;2;588;898;-3119;-8904;3819;2781;-2917
300627;2;17;2;588;176;-1824;-8233;698;2589;-3326
300637;2;17;2;588;-1098;-969;-6782;-1113;1700;-3355
300647;2;17;2;588;-2497;-625;-5674;-1366;462;-2903
300657;2;17;2;588;-3384;-1017;-4935;-48;-437;-1809
300667;2;17;2;588;-3449;-1650;-4380;1184;-735;-732
300677;2;17;2;588;-3189;-2144;-3638;453;-871;412
300687;2;17;2;588;-2506;-1991;-2732;-1769;-1226;1670
300697;2;17;2;588;-1508;-1635;-1797;-1749;-1723;2464
300707;2;17;2;588;-698;-1517;-2320;509;-1565;2357
300717;2;17;2;588;-116;-1622;-3715;1377;-776;1611
300727;2;17;2;588;207;-1756;-4329;378;-628;899
300737;2;17;2;588;153;-1727;-4360;-248;-845;524
300747;2;17;2;588;-166;-1770;-4082;165;-976;297
300757;2;17;2;588;-387;-1693;-3830;600;-923;108
300767;2;17;2;588;-674;-1717;-3593;464;-664;114
300777;2;17;2;588;-974;-1651;-3501;158;-118;-145
300787;2;17;2;588;-1124;-1360;-3328;-49;394;-474
300797;2;17;2;588;-1059;-1265;-3237;-263;567;-410
300807;2;17;2;588;-862;-1506;-3596;-604;687;-522
300817;2;17;2;588;-908;-1504;-3781;-985;687;-720
300827;2;17;2;588;-1099;-1589;-3791;-1347;-7;-345
300837;2;17;2;588;-991;-1739;-4188;-1784;-751;423
300847;2;17;2;588;-797;-1809;-4324;-2264;-928;996
300857;2;17;2;588;-588;-1681;-4014;-2853;-1103;1435
300867;2;17;2;588;-335;-1509;-3832;-3435;-1087;1514
300877;2;17;2;588;-319;-1336;-3584;-3605;-497;958
300887;2;17;2;588;-383;-1031;-3526;-3324;-196;530
300897;2;17;2;588;-426;-919;-4143;-3919;-35;268
300907;2;17;2;588;-637;-988;-4367;-5223;600;-349
300917;2;17;2;588;-941;-1002;-4056;-5252;793;-545
300927;2;17;2;589;-1110;-1065;-4107;-4399;613;-31
300937;2;17;2;589;-964;-1458;-4425;-3335;606;467
300947;2;17;2;589;-607;-1852;-4829;-1839;429;616
300957;2;17;2;589;-169;-2234;-5419;-716;-3;1057
300967;2;17;2;589;178;-3011;-5751;-685;-276;1417
300977;2;17;2;589;30;-3090;-5743;-1687;-578;1382
300987;2;17;2;589;-152;-2543;-5212;-3140;-1222;2279
300997;2;17;2;589;262;-2507;-4598;-4885;-1735;3396
301007;2;17;2;589;410;-2044;-4024;-6362;-1711;3669
301017;2;17;2;589;622;-1341;-3850;-6897;-1330;3427
301027;2;17;2;589;996;-728;-3995;-6148;-1032;3114
301037;2;17;2;589;1143;-473;-4696;-5044;-943;2656
301047;2;17;2;589;1093;-444;-5010;-3723;-1064;2018
301057;2;17;2;589;804;-620;-5051;-2224;-1394;1780
301067;2;17;2;589;453;-1050;-5045;-1615;-1891;1999
301077;2;17;2;589;299;-1560;-4646;-2435;-2255;2240
301087;2;17;2;589;-255;-1569;-4215;-3757;-2859;2776
301097;2;17;2;589;-719;-1443;-4253;-5064;-3507;4058
301107;2;17;2;589;-827;-1194;-4341;-6601;-3578;4948
301117;2;17;2;589;-952;-757;-4214;-7721;-3370;5519
301127;2;17;2;589;-862;-98;-4027;-8325;-3561;6202
301137;2;17;2;589;-391;375;-3864;-8958;-3886;6627
301147;2;17;2;589;178;641;-3318;-8626;-4234;6732
301157;2;17;2;589;1082;690;-2618;-6798;-4353;6621
301167;2;17;2;589;1387;1137;-2273;-4656;-4319;6251
301177;2;17;2;589;935;967;-2908;-4369;-4538;6444
301187;2;17;2;589;332;551;-3734;-5198;-4621;7121
301197;2;17;2;589;-543;730;-4227;-5551;-4287;7759
301207;2;17;2;589;-1083;1174;-4573;-5582;-3972;8156
301217;2;17;2;589;-1429;1774;-4597;-5515;-3498;8055
301227;2;17;2;589;-1716;2180;-4283;-4483;-3131;8235
301237;2;17;2;589;-1744;2201;-4016;-2853;-2718;8471
301247;2;17;2;589;-1779;2071;-3731;-1650;-1847;8208
301257;2;17;2;589;-1661;1516;-3759;-2539;-713;7515
301267;2;17;2;589;-1846;1384;-3910;-5424;358;6648
301277;2;17;2;589;-2087;1783;-3464;-8058;1020;6189
301287;2;17;2;589;-2178;2350;-3069;-9391;980;6180
301297;2;17;2;589;-2022;2762;-2974;-9984;244;6534
301307;2;17;2;589;-1695;2819;-3443;-10246;-594;7066
301317;2;17;2;589;-1400;2649;-3447;-9613;-732;7331
301327;2;17;2;589;-1502;2563;-3528;-9303;-504;7075
301337;2;17;2;589;-1815;2797;-3477;-9602;-122;6348
301347;2;17;2;589;-1990;2983;-3278;-9070;-184;5864
301357;2;17;2;589;-2095;2999;-3208;-8199;-851;5636
301367;2;17;2;589;-2112;2992;-3523;-6873;-1425;5243
301377;2;17;2;589;-1934;2821;-3758;-6037;-1742;4899
301387;2;17;2;589;-1837;2755;-3708;-5658;-1894;4424
301397;2;17;2;589;-1736;2789;-3552;-5900;-2162;4353
301407;2;17;2;589;-1940;2852;-3270;-7066;-2275;4253
301417;2;17;2;589;-2201;2869;-2615;-8168;-2247;4219
301427;2;17;2;590;-2272;2722;-2008;-8728;-2238;4404
301437;2;17;2;590;-2064;2660;-1655;-9056;-2200;4494
301447;2;17;2;590;-1770;2664;-1236;-8921;-2206;4332
301457;2;17;2;590;-1513;2575;-967;-7899;-2629;4165
301467;2;17;2;590;-1258;2436;-928;-6106;-3483;4269
301477;2;17;2;590;-1000;2261;-1346;-4298;-4372;4678
301487;2;17;2;590;-608;1938;-1766;-2946;-4932;5179
301497;2;17;2;590;-168;1672;-2263;-2492;-5249;5609
301507;2;17;2;590;28;1433;-2693;-3299;-5019;5730
301517;2;17;2;590;16;1416;-2720;-4706;-4158;5303
301527;2;17;2;590;-42;1710;-2427;-5658;-3201;4668
301537;2;17;2;590;-221;2078;-1871;-5818;-1906;3811
301547;2;17;2;590;-197;2291;-1538;-4760;-1238;3210
301557;2;17;2;590;-17;2434;-1530;-2966;-960;2645
301567;2;17;2;590;-126;2440;-1547;-811;-1260;2563
301577;2;17;2;590;-535;2276;-2056;492;-2043;3067
301587;2;17;2;590;-778;2007;-2968;791;-2095;3649
301597;2;17;2;590;-833;1927;-3364;279;-1500;4002
301607;2;17;2;590;-754;2033;-3509;-1185;-712;4463
301617;2;17;2;590;-402;2346;-3125;-3833;2;4625
301627;2;17;2;590;-231;2708;-2564;-5968;653;4249
301637;2;17;2;590;-190;2877;-2197;-6829;1482;3263
301647;2;17;2;590;-120;2868;-2070;-5823;2338;1802
301657;2;17;2;590;-125;2829;-2351;-4451;2732;849
301667;2;17;2;590;11;2379;-2374;-4035;2362;694
301677;2;17;2;590;-65;2049;-2405;-3857;1540;798
301687;2;17;2;590;-366;1915;-2297;-3385;907;1117
301697;2;17;2;590;-661;2012;-2485;-2768;656;1513
301707;2;17;2;590;-855;2065;-2747;-1630;833;2016
301717;2;17;2;590;-983;2539;-2895;-1801;686;2683
301727;2;17;2;590;-923;3094;-2767;-3257;655;3319
301737;2;17;2;590;-739;3557;-2313;-4032;865;3464
301747;2;17;2;590;-243;3569;-2376;-2813;1027;3186
301757;2;17;2;590;79;3750;-2428;-1154;1534;2531
301767;2;17;2;590;448;3800;-2682;294;2437;1899
301777;2;17;2;590;486;3907;-2704;881;3614;1337
301787;2;17;2;590;552;3787;-2812;959;4808;515
301797;2;17;2;590;204;4001;-2728;728;5645;-345
301807;2;17;2;590;-233;4315;-2717;707;5949;-797
301817;2;17;2;590;-433;4626;-2823;1204;5837;-973
301827;2;17;2;590;-501;4584;-3272;2094;5493;-1153
301837;2;17;2;590;-739;4597;-3568;2970;5348;-1386
301847;2;17;2;590;-719;4413;-3696;3226;5204;-1358
301857;2;17;2;590;-667;4380;-3656;2289;5042;-1087
301867;2;17;2;590;-683;4501;-3414;427;5098;-826
301877;2;17;2;590;-753;5008;-2818;-1647;5089;-816
301887;2;17;2;590;-750;5386;-2263;-3145;4778;-1049
301897;2;17;2;590;-671;5673;-2259;-3163;3872;-1616
301907;2;17;2;590;-1051;6123;-2538;-2118;2315;-1890
301917;2;17;2;590;-1831;6267;-2596;-755;-162;-983
301927;2;17;2;591;-2370;6309;-2997;349;-2675;807
301937;2;17;2;591;-2373;5989;-3348;893;-4343;3280
301947;2;17;2;591;-1724;5192;-3775;1232;-4613;5288
301957;2;17;2;591;-636;4333;-4210;392;-3618;6390
301967;2;17;2;591;633;3408;-4319;-1233;-2212;6845
301977;2;17;2;591;2026;2737;-3907;-3276;-1086;6551
301987;2;17;2;591;2964;2801;-3252;-5441;-724;5376
301997;2;17;2;591;2985;3421;-2185;-6937;-781;4064
302007;2;17;2;591;2116;3877;-886;-6658;-833;3265
302017;2;17;2;591;1084;4190;58;-4398;-685;2917
302027;2;17;2;591;493;4270;-311;-2044;-563;3349
302037;2;17;2;591;634;4126;-1195;-1904;-717;4286
302047;2;17;2;591;1044;4143;-1610;-2542;-996;4977
302057;2;17;2;591;1332;4314;-1593;-2160;-1167;5220
302067;2;17;2;591;1540;4256;-1506;-1466;-1588;5164
302077;2;17;2;591;1692;4242;-1476;-1324;-2193;4994
302087;2;17;2;591;1762;4283;-1454;-1640;-2701;4770
302097;2;17;2;591;1661;4517;-1191;-1962;-3143;4524
302107;2;17;2;591;1788;4688;-1040;-1905;-3698;4228
302117;2;17;2;591;1981;4824;-1200;-1528;-4230;3879
302127;2;17;2;591;2171;4814;-1375;-1119;-4853;3201
302137;2;17;2;591;1903;5079;-1413;-757;-5553;2800
302147;2;17;2;591;1741;4970;-1415;-560;-6358;2696
302157;2;17;2;591;1653;4704;-1390;-691;-6974;2702
302167;2;17;2;591;1515;4515;-1304;-989;-7488;2932
302177;2;17;2;591;1322;4297;-1201;-1307;-7763;3330
302187;2;17;2;591;1306;4022;-1099;-1552;-7482;3545
302197;2;17;2;591;1461;3782;-1105;-1674;-6896;3364
302207;2;17;2;591;1431;3793;-1195;-1533;-6323;3145
302217;2;17;2;591;1608;3809;-1168;-1149;-6006;3081
302227;2;17;2;591;1575;4075;-1193;-1106;-6075;2965
302237;2;17;2;591;1436;4358;-1045;-1128;-6308;2972
302247;2;17;2;591;1383;4552;-923;-906;-6670;2799
302257;2;17;2;591;1179;4730;-1113;250;-7027;2538
302267;2;17;2;591;1066;4578;-1462;1634;-7356;2576
302277;2;17;2;591;887;4405;-1963;2271;-7734;2807
302287;2;17;2;591;822;4171;-2603;2406;-8140;3251
302297;2;17;2;591;856;3854;-3062;1768;-8345;3655
302307;2;17;2;591;916;3729;-3167;656;-8431;4132
302317;2;17;2;591;841;3744;-3033;-615;-8425;4722
302327;2;17;2;591;813;3732;-2692;-2166;-8449;5260
302337;2;17;2;591;733;3798;-2181;-3267;-8559;5660
302347;2;17;2;591;610;3769;-1832;-3403;-8596;5892
302357;2;17;2;591;506;3776;-1640;-2941;-8717;6075
302367;2;17;2;591;612;3597;-1775;-2726;-8755;6252
302377;2;17;2;591;760;3407;-1806;-2891;-8516;6141
302387;2;17;2;591;875;3342;-1691;-3312;-8415;6010
302397;2;17;2;591;852;3337;-1424;-3716;-8469;5893
302407;2;17;2;591;801;3235;-1158;-3816;-8676;5894
302417;2;17;2;591;928;2983;-1116;-3654;-8835;5677
302427;2;17;2;592;940;2836;-1046;-3516;-8808;5067
302437;2;17;2;592;734;2797;-790;-3497;-8877;4594
302447;2;17;2;592;465;2743;-452;-3405;-9167;4356
302457;2;17;2;592;230;2614;-155;-3164;-9433;4317
302467;2;17;2;592;-63;2574;-149;-2702;-9470;4487
302477;2;17;2;592;-162;2375;-219;-1899;-9034;4603
302487;2;17;2;592;-23;2183;-429;-1214;-8276;4099
302497;2;17;2;592;152;2205;-666;-826;-7592;3367
302507;2;17;2;592;409;2358;-1026;-850;-7198;2633
302517;2;17;2;592;490;2593;-1391;-1334;-7271;2053
302527;2;17;2;592;465;2707;-1739;-2248;-7686;1771
302537;2;17;2;592;328;2699;-2033;-3387;-8403;1508
302547;2;17;2;592;192;2610;-2275;-4426;-8806;963
302557;2;17;2;592;98;2512;-2318;-4517;-8782;405
302567;2;17;2;592;136;2316;-2124;-3812;-8692;-152
302577;2;17;2;592;97;2342;-2072;-2929;-8844;-331
302587;2;17;2;592;229;2147;-2003;-2317;-9027;-79
302597;2;17;2;592;520;2025;-1833;-2167;-9234;454
302607;2;17;2;592;819;2084;-1646;-3145;-9368;1071
302617;2;17;2;592;1130;2271;-1430;-4856;-9413;1541
302627;2;17;2;592;1302;2477;-1088;-5910;-9226;1781
302637;2;17;2;592;1281;2719;-849;-6093;-8774;1683
302647;2;17;2;592;1201;2995;-757;-5978;-8093;1394
302657;2;17;2;592;1098;3242;-671;-5640;-7323;1098
302667;2;17;2;592;1023;3403;-697;-4869;-6708;811
302677;2;17;2;592;861;3525;-824;-3959;-6286;597
302687;2;17;2;592;703;3528;-982;-3183;-6210;603
302697;2;17;2;592;677;3400;-1114;-2778;-6241;720
302707;2;17;2;592;608;3380;-1144;-2638;-6406;866
302717;2;17;2;592;573;3333;-1031;-2528;-6457;862
302727;2;17;2;592;531;3364;-909;-2090;-6294;690
302737;2;17;2;592;361;3401;-953;-1343;-6056;540
302747;2;17;2;592;266;3448;-941;-666;-5825;362
302757;2;17;2;592;164;3643;-1077;-541;-5797;333
302767;2;17;2;592;87;3779;-1213;-705;-5800;464
302777;2;17;2;592;197;3846;-1312;-870;-5866;624
302787;2;17;2;592;96;4046;-1408;-1252;-6081;860
302797;2;17;2;592;75;4100;-1297;-1849;-6422;1310
302807;2;17;2;592;-44;4071;-1191;-2470;-6639;1574
302817;2;17;2;592;-127;4050;-1022;-2935;-6824;1964
302827;2;17;2;592;-232;3968;-897;-3390;-6960;2358
302837;2;17;2;592;-195;3794;-918;-3580;-6688;2448
302847;2;17;2;592;-197;3690;-927;-3632;-6016;2317
302857;2;17;2;592;-104;3571;-893;-3859;-5369;2089
302867;2;17;2;592;113;3512;-790;-4353;-4961;1865
302877;2;17;2;592;237;3501;-614;-4888;-4928;1726
302887;2;17;2;592;365;3435;-476;-5056;-5025;1712
302897;2;17;2;592;459;3359;-369;-4803;-5077;1485
302907;2;17;2;592;510;3391;-265;-4391;-5158;1259
302917;2;17;2;592;542;3309;-180;-4280;-5286;1012
302927;2;17;2;593;589;3272;-108;-4414;-5343;842
302937;2;17;2;593;621;3328;24;-4519;-5308;506
302947;2;17;2;593;522;3382;247;-4489;-5295;310
302957;2;17;2;593;331;3414;430;-4318;-5430;357
302967;2;17;2;593;376;3261;372;-4063;-5423;415
302977;2;17;2;593;418;3303;274;-3846;-5254;202
302987;2;17;2;593;716;3407;91;-3644;-5254;29
302997;2;17;2;593;1153;3477;-157;-3376;-5868;61
303007;2;17;2;593;1413;3442;-433;-3541;-6756;-142
303017;2;17;2;593;1345;3564;-552;-3940;-7385;-695
303027;2;17;2;593;980;3506;-551;-3704;-7444;-1550
303037;2;17;2;593;607;3439;-575;-2695;-7010;-1836
303047;2;17;2;593;95;3043;-858;-1553;-6217;-1703
303057;2;17;2;593;-535;2857;-1382;-1534;-5059;-1054
303067;2;17;2;593;-746;2823;-1888;-2222;-3284;-77
303077;2;17;2;593;-839;3205;-426;-2379;-1015;468
303087;2;17;2;593;-1328;4073;1193;510;-47;799
303097;2;17;2;593;-1293;4516;-764;637;122;1308
303107;2;17;2;593;111;4225;-1885;-2705;498;1237
303117;2;17;2;593;587;4613;-2176;-4597;362;-18
303127;2;17;2;593;70;5590;-1953;-4222;-496;-763
303137;2;17;2;593;-511;5896;-1878;-2598;-1840;-657
303147;2;17;2;593;-1376;6288;-2295;-432;-3416;-29
303157;2;17;2;593;-1842;6896;-2906;1656;-4642;1335
303167;2;17;2;593;-1395;6875;-3184;2800;-5084;2517
303177;2;17;2;593;-518;6752;-2996;2440;-5535;3632
303187;2;17;2;593;352;6494;-2823;211;-6400;4305
303197;2;17;2;593;1129;6382;-2228;-2129;-6974;4020
303207;2;17;2;593;1376;6336;-1370;-3166;-7019;3079
303217;2;17;2;593;1403;6014;-523;-2784;-7104;2177
303227;2;17;2;593;1255;5322;-435;-2073;-6895;1139
303237;2;17;2;593;801;4902;-494;-2220;-6093;305
303247;2;17;2;593;541;4434;-154;-2918;-5413;-100
303257;2;17;2;593;477;4025;229;-3049;-4940;-370
303267;2;17;2;593;498;3672;363;-2408;-4501;-611
303277;2;17;2;593;449;3312;366;-1390;-3999;-955
303287;2;17;2;593;393;3008;167;-239;-3367;-1272
303297;2;17;2;593;329;2894;-59;794;-2838;-1346
303307;2;17;2;593;351;2801;-369;1357;-2422;-1107
303317;2;17;2;593;305;2681;-438;1507;-2157;-874
303327;2;17;2;593;338;2780;-324;1701;-2282;-584
303337;2;17;2;593;320;2904;-269;2210;-2608;-249
303347;2;17;2;593;255;3004;-249;2873;-2989;4
303357;2;17;2;593;216;3032;-340;3596;-3306;478
303367;2;17;2;593;354;3087;-405;3970;-3482;748
303377;2;17;2;593;399;3112;-478;3835;-3384;1030
303387;2;17;2;593;636;2916;-576;3226;-3110;948
303397;2;17;2;593;637;3017;-828;2413;-2358;597
303407;2;17;2;593;635;3272;-939;1428;-1276;577
303417;2;17;2;593;653;3159;-941;267;3;656
303427;2;17;2;594;518;3082;-794;-990;1283;603
303437;2;17;2;594;524;3285;-626;-1907;2281;877
303447;2;17;2;594;456;3440;-482;-2571;3158;1058
303457;2;17;2;594;316;3756;-3;-2766;4210;1040
303467;2;17;2;594;348;4132;507;-1885;5180;935
303477;2;17;2;594;420;4565;573;-512;5943;841
303487;2;17;2;594;583;4821;201;320;6346;805
303497;2;17;2;594;889;4905;-456;444;6749;367
303507;2;17;2;594;846;5145;-1231;402;7064;-375
303517;2;17;2;594;683;5130;-1976;590;6961;-851
303527;2;17;2;594;538;5026;-2693;505;6448;-1076
303537;2;17;2;594;273;4898;-2950;-703;5296;-686
303547;2;17;2;594;146;4660;-2633;-2586;3777;94
303557;2;17;2;594;167;4267;-2081;-3982;2880;579
303567;2;17;2;594;307;4245;-907;-4688;2795;667
303577;2;17;2;594;467;4489;894;-3532;3427;487
303587;2;17;2;594;634;4704;2194;-55;3813;172
303597;2;17;2;594;839;4613;1282;2318;3628;149
303607;2;17;2;594;1187;4266;240;3031;3550;422
303617;2;17;2;594;1354;4057;-653;3414;3873;439
303627;2;17;2;594;1387;4154;-1205;3420;4270;229
303637;2;17;2;594;1344;4238;-1569;2762;4325;190
303647;2;17;2;594;1214;4233;-1723;1422;4036;311
303657;2;17;2;594;979;4234;-1617;-326;3514;625
303667;2;17;2;594;798;4166;-1209;-1944;2810;983
303677;2;17;2;594;607;4142;-617;-2665;2102;1223
303687;2;17;2;594;405;4030;-36;-2068;1548;1511
303697;2;17;2;594;421;3936;226;-1499;1390;1732
303707;2;17;2;594;636;3713;392;-200;1370;1882
303717;2;17;2;594;932;3492;198;1035;1594;1775
303727;2;17;2;594;1180;3389;-220;1835;1938;1389
303737;2;17;2;594;1348;3297;-399;2019;2288;1382
303747;2;17;2;594;1569;3200;-431;1769;2345;834
303757;2;17;2;594;1413;3529;-249;1622;2300;741
303767;2;17;2;594;1301;3585;-185;1530;2134;757
303777;2;17;2;594;1160;3597;-133;1643;2313;568
303787;2;17;2;594;1052;3643;-186;1744;2687;298
303797;2;17;2;594;1058;3636;-329;1661;2970;-21
303807;2;17;2;594;977;3647;-357;1399;3029;-263
303817;2;17;2;594;889;3704;-375;1581;2655;-362
303827;2;17;2;594;924;3581;-539;2366;2041;-473
303837;2;17;2;594;876;3547;-901;2913;1232;-624
303847;2;17;2;594;952;3520;-1414;2477;271;-532
303857;2;17;2;594;935;3489;-1777;1355;-491;-311
303867;2;17;2;594;946;3507;-1756;-79;-734;-95
303877;2;17;2;594;1006;3689;-1138;-1416;-765;-14
303887;2;17;2;594;1136;3997;-265;-1996;-1069;128
303897;2;17;2;594;1277;4078;215;-1882;-1137;238
303907;2;17;2;594;1313;3963;331;-1593;-820;38
303917;2;17;2;594;1161;3875;154;-955;-74;-389
