timestamp;subject_id;activity;label;seq;ax;ay;az;gx;gy;gz
151427;2;17;2;290;1218;3966;135;-2813;363;57
151437;2;17;2;290;1189;4016;242;-2416;258;-5
151447;2;17;2;290;1176;4070;257;-1805;258;-86
151457;2;17;2;290;1170;4083;254;-927;238;-226
151467;2;17;2;290;1202;3998;66;4;249;-320
151477;2;17;2;290;1186;3951;-244;769;204;-371
151487;2;17;2;290;1130;3970;-597;1012;173;-334
151497;2;17;2;290;1130;3971;-710;787;57;-357
151507;2;17;2;290;1096;4084;-719;390;-201;-358
151517;2;17;2;290;1018;4173;-664;-40;-388;-296
151527;2;17;2;290;952;4243;-527;-348;-466;-250
151537;2;17;2;290;929;4297;-367;-417;-522;-153
151547;2;17;2;290;955;4304;-335;-258;-595;-20
151557;2;17;2;290;1077;4217;-432;-18;-611;30
151567;2;17;2;290;1151;4162;-575;104;-612;-17
151577;2;17;2;290;1177;4111;-678;-122;-603;-89
151587;2;17;2;290;1191;4057;-686;-616;-673;-79
151597;2;17;2;290;1185;4004;-642;-1112;-803;-34
151607;2;17;2;290;1207;3951;-605;-1494;-797;-58
151617;2;17;2;290;1204;3918;-493;-1656;-675;-99
151627;2;17;2;290;1233;3906;-350;-1685;-655;-83
151637;2;17;2;290;1232;3929;-272;-1582;-666;-43
151647;2;17;2;290;1235;3873;-216;-1338;-614;-18
151657;2;17;2;290;1215;3817;-188;-1002;-559;-4
151667;2;17;2;290;1198;3805;-156;-697;-535;29
151677;2;17;2;290;1236;3782;-173;-435;-527;78
151687;2;17;2;290;1290;3750;-254;-85;-381;24
151697;2;17;2;290;1316;3788;-245;300;-173;-98
151707;2;17;2;290;1281;3880;-248;577;-123;-146
151717;2;17;2;290;1177;3945;-232;654;-112;-134
151727;2;17;2;290;1118;3945;-200;768;-46;-108
151737;2;17;2;290;1059;3956;-183;1046;78;-73
151747;2;17;2;290;1058;3987;-181;1349;211;-19
151757;2;17;2;290;1064;4039;-210;1602;311;62
151767;2;17;2;290;1098;4033;-226;1778;315;159
151777;2;17;2;290;1164;4054;-299;1833;222;259
151787;2;17;2;290;1225;4040;-389;1665;175;301
151797;2;17;2;290;1247;4005;-409;1542;308;240
151807;2;17;2;290;1268;3939;-422;1836;494;71
151817;2;17;2;290;1213;4018;-477;2249;617;-84
151827;2;17;2;290;1133;4030;-629;2190;654;-113
151837;2;17;2;290;1065;4024;-697;1649;676;-154
151847;2;17;2;290;983;3990;-633;1012;586;-131
151857;2;17;2;290;934;3971;-600;521;481;-71
151867;2;17;2;290;937;3939;-580;226;533;-73
151877;2;17;2;290;943;3955;-475;88;658;-107
151887;2;17;2;290;932;3996;-381;89;689;-93
151897;2;17;2;290;933;4052;-354;124;666;-70
151907;2;17;2;290;976;4047;-376;236;708;-120
151917;2;17;2;290;950;4045;-376;376;706;-180
151927;2;17;2;291;921;4088;-429;453;588;-194
151937;2;17;2;291;883;4075;-499;434;484;-181
151947;2;17;2;291;841;4044;-527;397;423;-164
151957;2;17;2;291;805;4022;-567;353;370;-136
151967;2;17;2;291;797;4016;-565;308;331;-90
151977;2;17;2;291;856;4004;-548;182;350;-76
151987;2;17;2;291;861;4027;-502;18;329;-74
151997;2;17;2;291;881;4023;-457;-26;310;-71
152007;2;17;2;291;907;4011;-417;49;295;-65
152017;2;17;2;291;897;4000;-407;143;294;-78
152027;2;17;2;291;901;3998;-441;239;307;-85
152037;2;17;2;291;891;4013;-444;288;365;-129
152047;2;17;2;291;898;4006;-483;361;346;-135
152057;2;17;2;291;906;4006;-485;375;320;-117
152067;2;17;2;291;892;4015;-473;348;253;-87
152077;2;17;2;291;935;4020;-486;374;171;-65
152087;2;17;2;291;948;4006;-536;438;216;-98
152097;2;17;2;291;961;4020;-584;469;276;-134
152107;2;17;2;291;984;4021;-629;363;322;-165
152117;2;17;2;291;960;4031;-608;208;289;-163
152127;2;17;2;291;962;4030;-574;135;243;-148
152137;2;17;2;291;932;4011;-571;156;209;-111
152147;2;17;2;291;931;4021;-632;186;308;-118
152157;2;17;2;291;896;4028;-596;203;399;-103
152167;2;17;2;291;933;4032;-578;219;377;-46
152177;2;17;2;291;968;4018;-612;245;344;-38
152187;2;17;2;291;985;4028;-666;245;309;-47
152197;2;17;2;291;989;3996;-759;148;311;-67
152207;2;17;2;291;981;4005;-767;-34;327;-85
152217;2;17;2;291;941;4027;-685;-250;304;-60
152227;2;17;2;291;973;4040;-635;-355;277;-38
152237;2;17;2;291;966;4033;-617;-365;308;-62
152247;2;17;2;291;938;4028;-553;-382;326;-62
152257;2;17;2;291;914;3988;-514;-398;272;-49
152267;2;17;2;291;947;3968;-569;-281;273;-77
152277;2;17;2;291;992;3982;-613;-100;381;-145
152287;2;17;2;291;982;4035;-570;-97;439;-182
152297;2;17;2;291;965;4079;-529;-202;343;-114
152307;2;17;2;291;963;4089;-429;-358;172;7
152317;2;17;2;291;998;4073;-419;-510;115;35
152327;2;17;2;291;1068;4010;-410;-334;406;-167
152337;2;17;2;291;1065;3985;-376;325;723;-356
152347;2;17;2;291;988;4043;-450;903;799;-393
152357;2;17;2;291;974;4030;-573;955;700;-316
152367;2;17;2;291;949;3944;-679;653;579;-233
152377;2;17;2;291;985;3897;-733;353;547;-247
152387;2;17;2;291;992;3937;-749;108;667;-330
152397;2;17;2;291;945;4024;-636;-164;741;-385
152407;2;17;2;291;865;4084;-509;-369;720;-357
152417;2;17;2;291;840;4050;-414;-413;646;-247
152427;2;17;2;292;867;4010;-413;-271;512;-134
152437;2;17;2;292;914;3953;-512;-148;402;-115
152447;2;17;2;292;976;3961;-614;-169;419;-143
152457;2;17;2;292;1003;3990;-637;-382;491;-217
152467;2;17;2;292;1005;4047;-565;-571;546;-277
152477;2;17;2;292;941;4064;-472;-635;585;-328
152487;2;17;2;292;904;4079;-460;-582;549;-312
152497;2;17;2;292;856;4054;-486;-499;538;-271
152507;2;17;2;292;858;4047;-499;-537;466;-188
152517;2;17;2;292;848;4050;-528;-637;372;-94
152527;2;17;2;292;892;4041;-529;-648;270;-32
152537;2;17;2;292;926;4011;-591;-553;223;-30
152547;2;17;2;292;963;3977;-641;-517;222;-93
152557;2;17;2;292;970;4010;-652;-688;170;-146
152567;2;17;2;292;924;4056;-586;-955;53;-134
152577;2;17;2;292;930;4028;-537;-1120;-31;-126
152587;2;17;2;292;910;4013;-453;-1033;39;-222
152597;2;17;2;292;917;4033;-401;-743;113;-269
152607;2;17;2;292;889;4043;-373;-517;89;-238
152617;2;17;2;292;918;4014;-454;-364;8;-175
152627;2;17;2;292;942;3972;-508;-256;-35;-121
152637;2;17;2;292;967;3958;-552;-209;-5;-126
152647;2;17;2;292;1005;3941;-556;-190;-4;-137
152657;2;17;2;292;1063;3997;-555;-246;-55;-171
152667;2;17;2;292;1049;4048;-502;-380;-123;-185
152677;2;17;2;292;1005;4032;-454;-507;-166;-190
152687;2;17;2;292;978;4022;-393;-530;-178;-186
152697;2;17;2;292;937;4007;-410;-395;-90;-219
152707;2;17;2;292;958;4008;-373;-201;-24;-229
152717;2;17;2;292;942;4022;-396;-33;38;-235
152727;2;17;2;292;983;4011;-501;104;74;-225
152737;2;17;2;292;1007;4032;-560;191;104;-237
152747;2;17;2;292;1045;4034;-544;128;40;-234
152757;2;17;2;292;1013;4083;-538;-57;-175;-169
152767;2;17;2;292;1000;4035;-544;-199;-323;-102
152777;2;17;2;292;988;3982;-555;-300;-365;-95
152787;2;17;2;292;922;3984;-532;-401;-324;-111
152797;2;17;2;292;891;4037;-441;-519;-337;-54
152807;2;17;2;292;944;4009;-414;-502;-353;11
152817;2;17;2;292;1012;4028;-390;-445;-339;8
152827;2;17;2;292;1005;4113;-356;-582;-413;23
152837;2;17;2;292;1054;4117;-366;-915;-452;53
152847;2;17;2;292;1088;4003;-343;-800;-289;-23
152857;2;17;2;292;1052;3963;-372;-179;-103;-132
152867;2;17;2;292;983;4004;-511;230;-45;-171
152877;2;17;2;292;916;4028;-586;-36;-69;-89
152887;2;17;2;292;910;4001;-549;-516;-99;-12
152897;2;17;2;292;908;4037;-399;-690;-184;60
152907;2;17;2;292;956;4040;-359;-621;-230;82
152917;2;17;2;292;956;4057;-321;-490;-220;70
152927;2;17;2;293;986;4054;-310;-403;-260;78
152937;2;17;2;293;987;4012;-317;-292;-306;78
152947;2;17;2;293;1012;3999;-360;-147;-316;52
152957;2;17;2;293;1054;4023;-393;-46;-367;43
152967;2;17;2;293;1065;4033;-432;-53;-444;59
152977;2;17;2;293;1058;4027;-409;-150;-486;43
152987;2;17;2;293;1052;4058;-409;-188;-464;23
152997;2;17;2;293;1003;4062;-382;-156;-411;-21
153007;2;17;2;293;970;4100;-353;-112;-413;-21
153017;2;17;2;293;951;4095;-344;-159;-419;14
153027;2;17;2;293;952;4106;-323;-257;-442;52
153037;2;17;2;293;922;4099;-239;-305;-509;122
153047;2;17;2;293;934;4082;-270;-312;-585;188
153057;2;17;2;293;947;4032;-288;-243;-582;193
153067;2;17;2;293;964;4007;-322;-203;-534;163
153077;2;17;2;293;966;4044;-277;-277;-532;146
153087;2;17;2;293;968;4051;-253;-385;-606;176
153097;2;17;2;293;978;4050;-258;-440;-589;152
153107;2;17;2;293;951;4066;-179;-418;-551;120
153117;2;17;2;293;950;4131;-125;-433;-606;145
153127;2;17;2;293;966;4128;-85;-423;-644;149
153137;2;17;2;293;980;4153;-77;-270;-709;172
153147;2;17;2;293;1013;4160;-114;35;-796;212
153157;2;17;2;293;1025;4155;-179;392;-842;193
153167;2;17;2;293;991;4196;-233;679;-920;212
153177;2;17;2;293;961;4204;-298;826;-1091;320
153187;2;17;2;293;952;4180;-413;948;-1263;503
153197;2;17;2;293;986;4099;-530;928;-1355;525
153207;2;17;2;293;1086;4062;-676;965;-1411;546
153217;2;17;2;293;1099;4030;-850;782;-1515;616
153227;2;17;2;293;1204;3970;-984;256;-1656;671
153237;2;17;2;293;1286;3830;-1048;-475;-1825;749
153247;2;17;2;293;1253;3545;-1085;-1217;-1969;584
153257;2;17;2;293;1145;3518;-1073;-1950;-2009;456
153267;2;17;2;293;1026;3588;-864;-2785;-2146;656
153277;2;17;2;293;1160;3518;-518;-3292;-2653;902
153287;2;17;2;293;949;3500;-432;-3398;-2894;1017
153297;2;17;2;293;1148;3538;-44;-3855;-2731;1041
153307;2;17;2;293;1293;3828;380;-4029;-2859;793
153317;2;17;2;293;1436;4021;821;-3682;-2781;686
153327;2;17;2;293;1400;4185;1275;-2805;-2796;533
153337;2;17;2;293;1327;4238;1486;-1121;-2785;391
153347;2;17;2;293;1222;4143;1200;477;-2415;109
153357;2;17;2;293;1136;4011;813;1315;-1941;-102
153367;2;17;2;293;1129;3918;527;1962;-1532;-150
153377;2;17;2;293;1151;3924;405;2748;-1271;-94
153387;2;17;2;293;1241;3933;230;3443;-1268;-15
153397;2;17;2;293;1273;4001;-24;3611;-1340;49
153407;2;17;2;293;1289;3966;-246;3310;-1434;81
153417;2;17;2;293;1259;3915;-363;2828;-1483;-19
153427;2;17;2;294;1253;3911;-441;2137;-1624;-158
153437;2;17;2;294;1195;3943;-387;1462;-1842;-207
153447;2;17;2;294;1099;4015;-242;764;-2159;-230
153457;2;17;2;294;997;4072;-53;269;-2444;-205
153467;2;17;2;294;878;4091;42;53;-2636;-143
153477;2;17;2;294;900;4104;40;135;-2749;-241
153487;2;17;2;294;943;4096;-28;282;-2918;-450
153497;2;17;2;294;1046;4183;-120;111;-3198;-523
153507;2;17;2;294;1222;4068;-215;-94;-3445;-399
153517;2;17;2;294;1175;4025;-381;-265;-3793;-411
153527;2;17;2;294;1270;3954;-471;-693;-4201;-477
153537;2;17;2;294;1238;3927;-460;-1392;-4616;-570
153547;2;17;2;294;1239;3889;-388;-2026;-4976;-644
153557;2;17;2;294;1241;3827;-299;-2414;-5162;-781
153567;2;17;2;294;1238;3822;-189;-2602;-5259;-887
153577;2;17;2;294;1307;3853;-57;-2732;-5406;-907
153587;2;17;2;294;1338;3863;81;-2810;-5597;-856
153597;2;17;2;294;1420;3865;187;-2824;-5816;-754
153607;2;17;2;294;1446;3784;192;-2702;-5919;-701
153617;2;17;2;294;1511;3760;178;-2394;-5874;-708
153627;2;17;2;294;1572;3727;114;-2041;-5845;-645
153637;2;17;2;294;1700;3690;-51;-1833;-5854;-633
153647;2;17;2;294;1751;3732;-98;-1831;-5840;-664
153657;2;17;2;294;1663;3853;24;-1914;-5884;-621
153667;2;17;2;294;1490;4060;271;-1688;-5910;-550
153677;2;17;2;294;1315;4242;344;-677;-5684;-462
153687;2;17;2;294;1068;4565;464;935;-5220;-337
153697;2;17;2;294;970;4928;535;3031;-4925;29
153707;2;17;2;294;951;4790;120;4888;-4764;122
153717;2;17;2;294;639;4731;-613;5895;-4709;37
153727;2;17;2;294;325;4569;-1607;6454;-4537;124
153737;2;17;2;294;140;4357;-2316;6490;-4202;252
153747;2;17;2;294;-108;4337;-2707;5479;-3929;493
153757;2;17;2;294;-171;4249;-2750;2989;-4161;1011
153767;2;17;2;294;-152;4372;-2418;-508;-4764;1396
153777;2;17;2;294;-131;4461;-1738;-3158;-5410;1836
153787;2;17;2;294;-63;4417;-1032;-3677;-5917;1994
153797;2;17;2;294;-75;4429;-654;-2319;-6105;1810
153807;2;17;2;294;-40;4315;-673;-63;-5832;1869
153817;2;17;2;294;-108;4024;-988;2031;-5545;1771
153827;2;17;2;294;-115;3922;-1417;3181;-5286;1574
153837;2;17;2;294;-52;3697;-1734;3289;-5068;1204
153847;2;17;2;294;162;3987;-1736;2684;-5320;1309
153857;2;17;2;294;126;3677;-1861;1287;-6119;1392
153867;2;17;2;294;64;3787;-1714;-684;-6511;1210
153877;2;17;2;294;16;3719;-1189;-1873;-6820;1103
153887;2;17;2;294;13;4007;-647;-1934;-7029;1068
153897;2;17;2;294;-139;3828;-345;-1304;-7048;949
153907;2;17;2;294;-251;4022;-56;-307;-6505;515
153917;2;17;2;294;-227;4087;239;1446;-6040;517
153927;2;17;2;295;-170;4110;81;3180;-5821;605
153937;2;17;2;295;44;3804;-250;4471;-5396;679
153947;2;17;2;295;234;3679;-672;5611;-4834;413
153957;2;17;2;295;241;3649;-1296;6036;-4352;177
153967;2;17;2;295;205;3715;-1631;5158;-4115;62
153977;2;17;2;295;48;3757;-1857;3357;-4332;267
153987;2;17;2;295;-15;3907;-1924;1168;-4812;735
153997;2;17;2;295;25;3864;-1856;-882;-5484;1474
154007;2;17;2;295;-61;3642;-1727;-2822;-5978;1533
154017;2;17;2;295;-132;3668;-1477;-4199;-6044;1589
154027;2;17;2;295;-248;3669;-1090;-4833;-6078;1509
154037;2;17;2;295;-290;3586;-958;-4694;-6184;1475
154047;2;17;2;295;-216;3442;-957;-4171;-5847;1434
154057;2;17;2;295;-58;3434;-840;-2927;-5294;1367
154067;2;17;2;295;33;3530;-871;-1516;-5054;1491
154077;2;17;2;295;99;3687;-1075;-648;-5031;1709
154087;2;17;2;295;161;3775;-1165;-484;-5161;2001
154097;2;17;2;295;272;3833;-1207;-647;-5310;2308
154107;2;17;2;295;360;3876;-1177;-705;-5373;2419
154117;2;17;2;295;446;4012;-1177;-528;-5326;2383
154127;2;17;2;295;440;4137;-1155;-444;-5221;2347
154137;2;17;2;295;493;4152;-1158;-611;-5164;2233
154147;2;17;2;295;436;4198;-1174;-830;-5094;2146
154157;2;17;2;295;458;4189;-1200;-979;-4851;2080
154167;2;17;2;295;467;4155;-1119;-948;-4551;1945
154177;2;17;2;295;512;4173;-1073;-945;-4297;1877
154187;2;17;2;295;565;4128;-1090;-1117;-4097;1762
154197;2;17;2;295;542;4023;-1093;-1430;-3839;1564
154207;2;17;2;295;500;4000;-1060;-1754;-3462;1305
154217;2;17;2;295;523;4027;-923;-1905;-2979;1170
154227;2;17;2;295;541;4108;-697;-2117;-2622;1141
154237;2;17;2;295;557;4054;-597;-2324;-2290;1081
154247;2;17;2;295;688;4034;-472;-2235;-1914;967
154257;2;17;2;295;698;3999;-358;-1959;-1629;813
154267;2;17;2;295;583;4055;-297;-1762;-1599;862
154277;2;17;2;295;469;3937;-300;-1705;-1578;835
154287;2;17;2;295;393;3838;-370;-1550;-1352;731
154297;2;17;2;295;231;3762;-403;-1152;-908;537
154307;2;17;2;295;61;3776;-460;-701;-579;621
154317;2;17;2;295;9;3709;-674;-699;-325;718
154327;2;17;2;295;61;3707;-785;-1068;-50;767
154337;2;17;2;295;182;3742;-705;-1581;213;746
154347;2;17;2;295;246;3972;-355;-1858;300;647
154357;2;17;2;295;207;4184;21;-1896;231;512
154367;2;17;2;295;151;4185;11;-1390;515;203
154377;2;17;2;295;86;4037;-74;-284;1236;-402
154387;2;17;2;295;-9;3929;-331;967;1926;-915
154397;2;17;2;295;-68;3861;-825;2162;2347;-1158
154407;2;17;2;295;57;3863;-1479;3273;2557;-1144
154417;2;17;2;295;213;3981;-1847;4215;2623;-1014
154427;2;17;2;296;267;4043;-2222;4443;2274;-789
154437;2;17;2;296;339;3892;-2821;3180;1431;-355
154447;2;17;2;296;527;3569;-3419;45;432;-23
154457;2;17;2;296;761;3355;-3517;-4587;-661;142
154467;2;17;2;296;1063;3388;-2181;-8816;-2085;255
154477;2;17;2;296;1090;3673;-288;-9227;-3047;429
154487;2;17;2;296;955;3699;1115;-4445;-2749;250
154497;2;17;2;296;868;3539;334;1120;-2230;-250
154507;2;17;2;296;1106;3411;-286;2316;-1879;-86
154517;2;17;2;296;1301;3537;-310;1443;-1456;40
154527;2;17;2;296;1298;3715;-389;1005;-1347;-17
154537;2;17;2;296;1168;3868;-612;1272;-1124;12
154547;2;17;2;296;944;3792;-999;1628;-968;102
154557;2;17;2;296;758;3660;-1512;1734;-801;100
154567;2;17;2;296;721;3601;-1816;1542;-605;-7
154577;2;17;2;296;654;3605;-1863;988;-703;106
154587;2;17;2;296;708;3528;-1868;217;-1093;364
154597;2;17;2;296;868;3298;-1462;-233;-1203;659
154607;2;17;2;296;859;3298;-1135;-50;-1348;804
154617;2;17;2;296;948;3297;-950;119;-1516;986
154627;2;17;2;296;1123;3205;-857;128;-1548;955
154637;2;17;2;296;1146;3143;-859;142;-1342;688
154647;2;17;2;296;1060;3140;-767;202;-1010;300
154657;2;17;2;296;876;3187;-735;196;-955;86
154667;2;17;2;296;710;3265;-752;55;-1057;136
154677;2;17;2;296;549;3276;-732;-107;-1025;101
154687;2;17;2;296;393;3326;-636;-218;-1016;24
154697;2;17;2;296;329;3488;-639;-319;-1149;21
154707;2;17;2;296;366;3516;-623;-398;-1113;260
154717;2;17;2;296;491;3481;-586;-712;-1202;244
154727;2;17;2;296;664;3480;-580;-1691;-1424;306
154737;2;17;2;296;822;3371;-436;-2906;-1644;234
154747;2;17;2;296;1022;3224;-369;-3657;-1539;-153
154757;2;17;2;296;992;3256;-288;-3820;-978;-646
154767;2;17;2;296;865;3291;-115;-3875;-422;-965
154777;2;17;2;296;622;3246;-23;-4013;30;-1107
154787;2;17;2;296;565;3086;25;-3772;441;-1299
154797;2;17;2;296;492;2965;32;-3159;723;-1365
154807;2;17;2;296;367;2977;-26;-2626;650;-1255
154817;2;17;2;296;191;3179;-136;-2479;505;-927
154827;2;17;2;296;127;3127;-318;-2318;380;-706
154837;2;17;2;296;191;3257;-532;-2067;169;-495
154847;2;17;2;296;200;3394;-752;-2133;-236;-261
154857;2;17;2;296;366;3546;-1004;-2258;-746;-214
154867;2;17;2;296;587;3672;-1011;-1592;-968;-626
154877;2;17;2;296;799;3846;-1169;-262;-1346;-965
154887;2;17;2;296;638;4042;-1547;616;-1854;-1125
154897;2;17;2;296;483;4201;-1773;610;-2178;-1214
154907;2;17;2;296;332;4375;-1656;-13;-2666;-1195
154917;2;17;2;296;265;4576;-1555;-572;-3436;-723
154927;2;17;2;297;-95;4538;-1437;-1250;-3720;-873
154937;2;17;2;297;-264;4840;-993;-1689;-3688;-899
154947;2;17;2;297;-243;5111;-573;-2176;-3735;-637
154957;2;17;2;297;-164;5298;-272;-2583;-3870;-269
154967;2;17;2;297;47;5262;-96;-2949;-3989;48
154977;2;17;2;297;243;5109;-76;-3656;-4214;417
154987;2;17;2;297;559;4671;-230;-4488;-4479;713
154997;2;17;2;297;812;4227;-606;-4793;-4603;757
155007;2;17;2;297;975;4249;-961;-5033;-4148;337
155017;2;17;2;297;877;4558;-747;-5735;-3394;-168
155027;2;17;2;297;430;4906;40;-6084;-3292;-240
155037;2;17;2;297;-63;5104;803;-4797;-3655;234
155047;2;17;2;297;-265;5143;1036;-2083;-3654;515
155057;2;17;2;297;-270;5215;509;739;-3325;593
155067;2;17;2;297;12;5053;-312;2401;-2823;780
155077;2;17;2;297;371;4753;-1011;2700;-2845;1066
155087;2;17;2;297;696;4591;-1438;1776;-3312;1055
155097;2;17;2;297;716;4725;-1247;-237;-3872;989
155107;2;17;2;297;458;4830;-464;-1898;-4014;954
155117;2;17;2;297;256;4836;413;-1249;-3765;814
155127;2;17;2;297;10;4807;470;1062;-3460;820
155137;2;17;2;297;-27;4649;-238;2933;-2804;851
155147;2;17;2;297;327;4610;-732;3193;-2047;781
155157;2;17;2;297;628;4637;-426;2321;-1984;862
155167;2;17;2;297;582;4408;-235;2171;-2565;960
155177;2;17;2;297;556;4302;-24;2738;-2772;808
155187;2;17;2;297;498;4448;272;3514;-2881;742
155197;2;17;2;297;566;4560;368;4752;-3327;1035
155207;2;17;2;297;691;4615;78;5855;-4062;1290
155217;2;17;2;297;736;4598;-352;6758;-4725;1389
155227;2;17;2;297;789;4557;-872;8004;-4893;1177
155237;2;17;2;297;870;4655;-1538;9034;-4851;912
155247;2;17;2;297;887;4724;-1889;9222;-4607;525
155257;2;17;2;297;791;4781;-1819;9110;-4857;188
155267;2;17;2;297;724;4910;-1877;9087;-5167;-1
155277;2;17;2;297;803;4677;-1957;9747;-5071;-328
155287;2;17;2;297;798;4341;-2048;10963;-4962;-842
155297;2;17;2;297;725;4049;-2338;11701;-5035;-1023
155307;2;17;2;297;581;3759;-2761;11015;-4807;-1121
155317;2;17;2;297;508;3446;-2744;8926;-4225;-1261
155327;2;17;2;297;421;3417;-2226;5886;-3708;-1248
155337;2;17;2;297;757;3336;-1281;2540;-3528;-952
155347;2;17;2;297;1424;3128;316;2124;-3612;-885
155357;2;17;2;297;1841;2880;745;6066;-3305;-1152
155367;2;17;2;297;1845;2601;-275;9479;-1578;-1713
155377;2;17;2;297;1877;2206;-420;10215;-326;-2851
155387;2;17;2;297;1469;2010;-5;10270;718;-3297
155397;2;17;2;297;891;1858;47;10867;1854;-3474
155407;2;17;2;297;472;1974;-94;11935;2889;-3464
155417;2;17;2;297;-14;1915;-538;12490;3521;-3036
155427;2;17;2;298;-400;2161;-954;12452;3759;-2222
155437;2;17;2;298;-361;2104;-1264;12359;3898;-1253
155447;2;17;2;298;-480;2136;-1858;12477;3738;-507
155457;2;17;2;298;-403;2131;-2309;12483;3812;-21
155467;2;17;2;298;-182;2133;-2741;12737;4000;41
155477;2;17;2;298;384;2601;-3122;13298;3973;-169
155487;2;17;2;298;744;2875;-3769;13929;4035;-524
155497;2;17;2;298;621;3166;-4180;13678;3517;-698
155507;2;17;2;298;565;3064;-4288;12201;2447;-1081
155517;2;17;2;298;-232;3945;-4146;11176;1397;-1465
155527;2;17;2;298;-1205;3665;-3880;10665;-250;-834
155537;2;17;2;298;-2185;3459;-3811;11295;-1656;327
155547;2;17;2;298;-2169;2529;-4097;12708;-1840;1805
155557;2;17;2;298;-1937;1846;-4559;13484;-913;2324
155567;2;17;2;298;-1345;1933;-4441;12007;1085;1795
155577;2;17;2;298;325;3500;-719;11200;2854;570
155587;2;17;2;298;893;4259;1153;16069;4167;-1021
155597;2;17;2;298;1299;3885;-1807;15058;5002;-2670
155607;2;17;2;298;1687;3172;-1066;10827;6572;-4649
155617;2;17;2;298;1357;2146;-788;10013;8398;-5944
155627;2;17;2;298;1220;1143;-1665;10589;9488;-6124
155637;2;17;2;298;1081;414;-3216;9189;10465;-5926
155647;2;17;2;298;612;-407;-3162;7849;10739;-4792
155657;2;17;2;298;-180;35;-2358;8830;10607;-3644
155667;2;17;2;298;-350;750;-2619;9006;9933;-1989
155677;2;17;2;298;514;1057;-2403;8165;8790;-816
155687;2;17;2;298;948;1948;-4240;7314;8704;-1368
155697;2;17;2;298;1555;2281;-4538;6917;8570;-3000
155707;2;17;2;298;3576;172;-6126;4509;7050;-6506
155717;2;17;2;298;1877;1103;-6718;1040;5558;-10061
155727;2;17;2;298;768;657;-6007;562;2233;-9781
155737;2;17;2;298;-8;-147;-4734;7689;-2452;-8563
155747;2;17;2;298;-4108;-2030;-5294;10618;-6447;-2398
155757;2;17;2;298;-5211;-3865;-5912;1944;-9411;5913
155767;2;17;2;298;-1432;-2547;-2709;-4101;-10644;11834
155777;2;17;2;298;2939;-1750;-320;-1391;-9586;13157
155787;2;17;2;298;6735;-2015;-2596;4025;-6924;9137
155797;2;17;2;298;7040;-2111;-5260;4599;-5215;3140
155807;2;17;2;298;6611;-1285;-5937;-563;-5973;-553
155817;2;17;2;298;4127;-346;-5356;-6068;-8983;-570
155827;2;17;2;298;-155;-606;-3793;-9051;-11398;1035
155837;2;17;2;298;-2250;-1559;-2808;-6600;-13285;2983
155847;2;17;2;298;-2841;-2264;-2283;-43;-14183;5061
155857;2;17;2;298;-2801;-3503;-1587;10480;-15574;6627
155867;2;17;2;298;-1597;-5056;-5567;20170;-16409;5470
155877;2;17;2;298;-2155;-3504;-9473;20202;-12912;6157
155887;2;17;2;298;294;-2786;-9679;7781;-10273;7144
155897;2;17;2;298;2058;-1909;-8229;-6384;-9033;6220
155907;2;17;2;298;3491;-1307;-5979;-13287;-8596;4271
155917;2;17;2;298;3313;-1439;-3814;-11491;-8237;2459
155927;2;17;2;299;2498;-1354;-3013;-3187;-7987;1373
155937;2;17;2;299;2254;-1451;-3329;5760;-7514;564
155947;2;17;2;299;1692;-1333;-4534;10887;-6523;-497
155957;2;17;2;299;813;-1533;-4962;12103;-5209;-1122
155967;2;17;2;299;469;-2323;-4824;12907;-4386;-1227
155977;2;17;2;299;652;-3930;-5005;15868;-3713;-1185
155987;2;17;2;299;838;-5648;-5633;19642;-3499;-1339
155997;2;17;2;299;862;-7097;-6302;22039;-3628;-733
156007;2;17;2;299;549;-7929;-7013;21517;-4075;-81
156017;2;17;2;299;61;-7268;-7511;17351;-4161;39
156027;2;17;2;299;-307;-5693;-7286;9906;-3708;-62
156037;2;17;2;299;-627;-3440;-5932;1934;-2681;-837
156047;2;17;2;299;-1035;-1145;-3962;-2968;-1148;-2163
156057;2;17;2;299;-1500;501;-2413;-2644;652;-3064
156067;2;17;2;299;-1583;462;-2344;2303;406;-1081
156077;2;17;2;299;-339;-1176;-4301;4795;-825;1618
156087;2;17;2;299;216;-2735;-5861;1646;-1467;2124
156097;2;17;2;299;11;-3195;-5526;-3974;-1819;1324
156107;2;17;2;299;-824;-2974;-4360;-7612;-2422;1041
156117;2;17;2;299;-1766;-2868;-3271;-7740;-3019;1316
156127;2;17;2;299;-2623;-2846;-2620;-5628;-3265;2326
156137;2;17;2;299;-2890;-2803;-2531;-2911;-3210;3296
156147;2;17;2;299;-2735;-2516;-2833;-754;-2715;4043
156157;2;17;2;299;-1860;-2317;-3487;-1316;-2380;4427
156167;2;17;2;299;-543;-1919;-3907;-3417;-2340;3728
156177;2;17;2;299;11;-1669;-4143;-5147;-2720;3247
156187;2;17;2;299;-202;-1760;-4108;-6607;-3262;3580
156197;2;17;2;299;-338;-2052;-3760;-8626;-4228;3678
156207;2;17;2;299;-676;-1926;-3326;-10459;-5036;3998
156217;2;17;2;299;-535;-1867;-2765;-11376;-5285;4101
156227;2;17;2;299;-580;-1325;-2203;-11849;-5208;3134
156237;2;17;2;299;-807;-895;-1882;-12133;-5190;2321
156247;2;17;2;299;-1451;-693;-2205;-12666;-4985;1765
156257;2;17;2;299;-2144;-632;-2137;-12045;-4170;2076
156267;2;17;2;299;-2251;-610;-2356;-10447;-3437;1897
156277;2;17;2;299;-1975;-155;-3059;-9362;-2955;1464
156287;2;17;2;299;-1672;249;-3682;-9890;-2241;1059
156297;2;17;2;299;-1968;221;-3884;-13077;-1569;134
156307;2;17;2;299;-2202;401;-3549;-15397;-761;-1011
156317;2;17;2;299;-2594;1064;-2043;-16258;132;-2337
156327;2;17;2;299;-2993;1863;-573;-13770;532;-3174
156337;2;17;2;299;-3680;2577;132;-6197;656;-3303
156347;2;17;2;299;-4182;2341;-2323;-787;306;-1541
156357;2;17;2;299;-3799;1481;-3996;-2118;67;120
156367;2;17;2;299;-2541;701;-3526;-3324;-522;280
156377;2;17;2;299;-296;200;-3363;-2487;-916;-1398
156387;2;17;2;299;1597;300;-3911;-1675;-3403;-4348
156397;2;17;2;299;1406;835;-5129;-2032;-4708;-5520
156407;2;17;2;299;-352;2381;-6233;-3450;-2857;-6162
156417;2;17;2;299;-1193;1887;-4532;-4863;-991;-6271
156427;2;17;2;300;-1726;784;-3974;-3833;105;-6556
156437;2;17;2;300;-2284;412;-3836;-3290;288;-5998
156447;2;17;2;300;-2768;228;-3512;-1641;444;-4567
156457;2;17;2;300;-3227;-362;-3733;720;746;-2628
156467;2;17;2;300;-3305;-124;-4261;1099;1859;-1718
156477;2;17;2;300;-3787;256;-4008;745;2822;-829
156487;2;17;2;300;-2562;-108;-3779;712;2001;-898
156497;2;17;2;300;-1918;935;-3369;558;1496;-2413
156507;2;17;2;300;-2001;581;-2952;1701;323;-2561
156517;2;17;2;300;-2282;-14;-3361;2729;-203;-2864
156527;2;17;2;300;-2936;71;-3492;2521;97;-3437
156537;2;17;2;300;-3253;390;-3407;1893;363;-3247
156547;2;17;2;300;-3226;754;-3464;1781;538;-2209
156557;2;17;2;300;-2548;711;-3721;2106;706;-962
156567;2;17;2;300;-1427;357;-4014;1994;767;-228
156577;2;17;2;300;-852;372;-4265;1176;1220;-839
156587;2;17;2;300;-1130;387;-3974;245;1130;-1110
156597;2;17;2;300;-1596;99;-3663;21;775;-1019
156607;2;17;2;300;-1895;-670;-3244;1155;425;-616
156617;2;17;2;300;-2667;-896;-3533;2459;632;-306
156627;2;17;2;300;-3145;-505;-3503;2567;1376;-98
156637;2;17;2;300;-3073;115;-3338;1882;1484;516
156647;2;17;2;300;-2587;533;-3659;1253;1344;1220
156657;2;17;2;300;-1416;663;-4144;308;1463;823
156667;2;17;2;300;-982;1305;-4059;-771;1336;295
156677;2;17;2;300;-221;1180;-3827;-1260;-12;1136
156687;2;17;2;300;195;303;-4256;-2489;-880;1436
156697;2;17;2;300;-680;-378;-4250;-3835;-842;853
156707;2;17;2;300;-2160;-875;-4355;-3984;-628;507
156717;2;17;2;300;-3405;-610;-4155;-2808;-236;1055
156727;2;17;2;300;-3760;-635;-4575;-1187;-212;2365
156737;2;17;2;300;-2841;-1056;-5375;-636;209;3398
156747;2;17;2;300;-1493;-942;-5288;-2110;969;2746
156757;2;17;2;300;-359;-764;-4477;-3757;879;1818
156767;2;17;2;300;-333;-706;-3792;-4027;-169;1410
156777;2;17;2;300;-1122;-623;-3930;-3214;-1056;1282
156787;2;17;2;300;-2176;-518;-4435;-2643;-1300;1639
156797;2;17;2;300;-3122;6;-4674;-2411;-926;2475
156807;2;17;2;300;-3564;752;-4501;-2692;-555;3734
156817;2;17;2;300;-3411;1150;-4328;-2605;-496;5850
156827;2;17;2;300;-3126;1444;-4122;-3615;-616;7333
156837;2;17;2;300;-1911;1627;-3990;-3784;-1544;8444
156847;2;17;2;300;92;1253;-4428;-4022;-2492;7645
156857;2;17;2;300;903;1084;-3682;-2571;-3517;5755
156867;2;17;2;300;1031;357;-3432;-429;-5564;3890
156877;2;17;2;300;-320;-285;-3644;949;-7470;3198
156887;2;17;2;300;-1480;-1319;-3361;3754;-8632;2695
156897;2;17;2;300;-2974;-2074;-3013;7177;-7418;2166
156907;2;17;2;300;-5449;-2247;-3033;10336;-5112;2144
156917;2;17;2;300;-6208;-2060;-3610;10144;-2753;3630
156927;2;17;2;301;-5457;-1182;-5223;4834;604;4879
156937;2;17;2;301;-3682;-298;-5401;-1810;3843;4814
156947;2;17;2;301;-1539;471;-5100;-5092;5788;3294
156957;2;17;2;301;-409;1488;-4640;-6694;6251;1912
156967;2;17;2;301;262;2467;-3674;-4883;4888;978
156977;2;17;2;301;294;2503;-3126;1086;2740;1261
156987;2;17;2;301;-265;1561;-3079;7023;738;1581
156997;2;17;2;301;-751;419;-3311;12689;-313;1333
157007;2;17;2;301;-2176;-1225;-4104;12906;2673;103
157017;2;17;2;301;-3970;-1498;-3720;7030;5444;-1804
157027;2;17;2;301;-4031;-943;-2785;4327;6586;-1444
157037;2;17;2;301;-2990;-589;-2365;7186;7696;-89
157047;2;17;2;301;-1755;-569;-3059;10036;8606;710
157057;2;17;2;301;-357;-176;-4106;9216;8846;17
157067;2;17;2;301;-639;934;-4583;5974;9704;-1669
157077;2;17;2;301;-1148;1016;-3800;4048;10392;-2275
157087;2;17;2;301;-1422;581;-3351;4599;10281;-2332
157097;2;17;2;301;-1972;74;-3599;5096;10040;-1796
157107;2;17;2;301;-2103;-721;-4045;4302;9758;-611
157117;2;17;2;301;-1656;-1545;-4246;3070;9295;494
157127;2;17;2;301;-1289;-1855;-4090;2954;9104;721
157137;2;17;2;301;-1076;-1395;-3996;2919;8917;278
157147;2;17;2;301;-641;-666;-3928;1478;8443;-79
157157;2;17;2;301;-472;-143;-3432;-120;7899;-294
157167;2;17;2;301;-564;-32;-3012;-645;7178;-357
157177;2;17;2;301;-121;-407;-3297;-267;6462;-704
157187;2;17;2;301;222;-458;-3626;-139;6464;-1924
157197;2;17;2;301;113;-479;-3455;-242;6504;-2859
157207;2;17;2;301;151;-682;-3705;89;6359;-3252
157217;2;17;2;301;-232;-679;-3931;530;6802;-3520
157227;2;17;2;301;-447;-909;-3611;1202;6407;-2841
157237;2;17;2;301;104;-1220;-3451;1157;4747;-1463
157247;2;17;2;301;837;-1173;-3256;-7;2943;133
157257;2;17;2;301;1413;-1128;-2830;-426;1945;759
157267;2;17;2;301;1901;-1169;-2940;733;2175;-221
157277;2;17;2;301;1418;-693;-3121;2584;3622;-1985
157287;2;17;2;301;1210;-592;-3261;3812;5308;-3892
157297;2;17;2;301;912;-399;-3354;4271;7087;-5856
157307;2;17;2;301;312;-354;-3148;4856;8313;-6869
157317;2;17;2;301;-39;-601;-2966;6799;8633;-6527
157327;2;17;2;301;-128;-1122;-3151;8928;8233;-5599
157337;2;17;2;301;63;-1374;-4192;9376;7593;-4411
157347;2;17;2;301;227;-1249;-5397;7417;7333;-3571
157357;2;17;2;301;1085;-989;-6027;3555;7056;-3411
157367;2;17;2;301;1708;-670;-5926;-1124;6923;-3865
157377;2;17;2;301;2018;-369;-5448;-5943;6441;-4531
157387;2;17;2;301;1780;255;-4567;-9163;5489;-5296
157397;2;17;2;301;1205;567;-3777;-9798;4548;-5275
157407;2;17;2;301;364;579;-3475;-8958;3745;-4987
157417;2;17;2;301;-279;721;-3501;-7497;3342;-4468
157427;2;17;2;302;-798;776;-3754;-6008;3621;-4158
157437;2;17;2;302;-996;838;-3838;-4931;3901;-3722
157447;2;17;2;302;-321;975;-4308;-5172;3896;-3352
157457;2;17;2;302;297;1347;-4509;-6274;3578;-2961
157467;2;17;2;302;1105;1157;-4683;-7463;3000;-2765
157477;2;17;2;302;1585;1040;-4644;-8535;2462;-3275
157487;2;17;2;302;1456;1144;-4155;-9451;1616;-3575
157497;2;17;2;302;1142;1274;-3228;-9696;726;-3676
157507;2;17;2;302;699;1369;-1948;-7783;122;-3765
157517;2;17;2;302;519;1184;-2088;-4547;166;-3943
157527;2;17;2;302;291;848;-2914;-3356;895;-4310
157537;2;17;2;302;285;559;-3419;-3784;1622;-4620
157547;2;17;2;302;636;424;-3730;-4026;1882;-4738
157557;2;17;2;302;972;549;-4085;-3957;1629;-4755
157567;2;17;2;302;1207;752;-4274;-3815;778;-4317
157577;2;17;2;302;1680;852;-4400;-3871;-418;-4165
157587;2;17;2;302;1845;1413;-4279;-4077;-1579;-4433
157597;2;17;2;302;1687;1941;-3894;-3946;-2492;-4602
157607;2;17;2;302;1585;2157;-3539;-3410;-3100;-4746
157617;2;17;2;302;1396;2382;-3482;-3107;-3445;-4791
157627;2;17;2;302;1160;2409;-3531;-3480;-3233;-4586
157637;2;17;2;302;1114;2151;-3552;-4072;-2354;-4496
157647;2;17;2;302;1651;2119;-3795;-4603;-899;-5354
157657;2;17;2;302;1953;2316;-3862;-4994;866;-6441
157667;2;17;2;302;1989;2473;-3823;-5611;2271;-6975
157677;2;17;2;302;2652;2677;-3573;-6207;2625;-7230
157687;2;17;2;302;2718;2536;-3609;-6251;2615;-7029
157697;2;17;2;302;2820;2081;-3509;-5417;2320;-6782
157707;2;17;2;302;2811;1667;-3557;-4323;1774;-6341
157717;2;17;2;302;2523;1408;-3574;-3293;1378;-6046
157727;2;17;2;302;2285;1087;-3371;-2143;1248;-5896
157737;2;17;2;302;2323;1031;-3480;-1098;1308;-6269
157747;2;17;2;302;2121;1355;-3451;-980;1881;-6688
157757;2;17;2;302;1832;1641;-3221;-1061;2474;-6926
157767;2;17;2;302;1815;1724;-3244;-1201;2932;-7181
157777;2;17;2;302;1918;2047;-3565;-1657;3570;-7972
157787;2;17;2;302;1659;2234;-3515;-1927;4043;-8444
157797;2;17;2;302;1672;2362;-3502;-1804;3884;-8287
157807;2;17;2;302;1749;2244;-3588;-1668;3726;-8067
157817;2;17;2;302;1765;2001;-3529;-2099;3615;-7915
157827;2;17;2;302;1760;2004;-3291;-2536;3656;-7870
157837;2;17;2;302;1733;2085;-3108;-2792;3812;-7843
157847;2;17;2;302;1759;2186;-2942;-2783;4075;-7961
157857;2;17;2;302;1800;2331;-2788;-2216;4284;-8135
157867;2;17;2;302;1904;2489;-2921;-1680;4564;-8414
157877;2;17;2;302;1901;2849;-3113;-1454;4965;-8746
157887;2;17;2;302;1745;3208;-3414;-2018;5554;-8910
157897;2;17;2;302;1821;3778;-3315;-2449;5886;-8464
157907;2;17;2;302;2313;3717;-3377;-2720;6258;-8221
157917;2;17;2;302;2690;3652;-3510;-3194;6640;-8361
157927;2;17;2;303;2926;3504;-3597;-3658;6661;-8281
157937;2;17;2;303;3324;3312;-3640;-3854;6523;-8185
157947;2;17;2;303;3499;3216;-3631;-3574;6473;-8573
157957;2;17;2;303;3623;3126;-3641;-3041;6564;-9318
157967;2;17;2;303;3466;3217;-3561;-2650;6744;-10371
157977;2;17;2;303;3085;3422;-3446;-2051;6877;-11292
157987;2;17;2;303;2806;3745;-3597;-1161;6948;-12054
157997;2;17;2;303;2544;3959;-3902;-1063;7110;-12657
158007;2;17;2;303;2031;4108;-3742;-2024;6878;-12830
158017;2;17;2;303;1411;4183;-3354;-3767;6129;-11817
158027;2;17;2;303;905;4032;-2916;-5104;5296;-10302
158037;2;17;2;303;522;3453;-2715;-5512;4914;-8891
158047;2;17;2;303;314;2558;-2669;-4589;4979;-8127
158057;2;17;2;303;120;1851;-2988;-3041;4892;-7488
158067;2;17;2;303;-137;1332;-3678;-2298;4526;-6751
158077;2;17;2;303;-135;1351;-4207;-2666;4126;-6216
158087;2;17;2;303;-117;1457;-4266;-2782;3544;-5521
158097;2;17;2;303;-37;1669;-4267;-2035;2846;-5070
158107;2;17;2;303;155;2180;-4340;-1282;2245;-4925
158117;2;17;2;303;165;3074;-4314;-1072;1913;-4890
158127;2;17;2;303;291;3660;-4026;-1251;1248;-4693
158137;2;17;2;303;480;4145;-3685;-1556;637;-4817
158147;2;17;2;303;516;4613;-3273;-1421;155;-5152
158157;2;17;2;303;584;4811;-3033;-672;-211;-5483
158167;2;17;2;303;673;4727;-2956;264;-235;-5801
158177;2;17;2;303;565;4586;-2964;612;275;-6085
158187;2;17;2;303;449;4422;-2916;267;1168;-6429
158197;2;17;2;303;430;4365;-2770;-464;2045;-6477
158207;2;17;2;303;398;4325;-2566;-1523;2750;-6049
158217;2;17;2;303;275;4282;-2544;-2562;3617;-5587
158227;2;17;2;303;311;4152;-2563;-3278;4574;-5414
158237;2;17;2;303;347;4026;-2589;-3625;5422;-5458
158247;2;17;2;303;216;3828;-2488;-3782;6116;-5542
158257;2;17;2;303;148;3652;-2340;-3364;6569;-5608
158267;2;17;2;303;136;3320;-2379;-2237;6929;-5668
158277;2;17;2;303;225;2879;-2475;-797;7134;-5672
158287;2;17;2;303;153;2621;-2646;515;7168;-5607
158297;2;17;2;303;71;2583;-2777;1350;7141;-5391
158307;2;17;2;303;-283;2728;-2686;1750;7237;-5119
158317;2;17;2;303;-704;2928;-2303;2168;7453;-4608
158327;2;17;2;303;-946;3204;-2072;2625;7943;-3977
158337;2;17;2;303;-892;3392;-1957;3024;8550;-3369
158347;2;17;2;303;-663;3495;-2051;3183;9223;-3088
158357;2;17;2;303;-296;3376;-2264;2693;9880;-3182
158367;2;17;2;303;116;3234;-2385;2176;10164;-3775
158377;2;17;2;303;372;3116;-2400;2138;10067;-4373
158387;2;17;2;303;498;2911;-2459;2528;9521;-4636
158397;2;17;2;303;342;2633;-2631;2984;8801;-4896
158407;2;17;2;303;97;2365;-2713;3230;8134;-5124
158417;2;17;2;303;-147;2275;-2711;3148;7670;-5409
158427;2;17;2;304;-328;2418;-2446;2924;7217;-5260
158437;2;17;2;304;-572;2677;-2085;2798;6768;-4477
158447;2;17;2;304;-669;2827;-1777;2758;6508;-3444
158457;2;17;2;304;-450;2832;-1558;2681;6458;-2617
158467;2;17;2;304;-76;2922;-1455;2464;6602;-2337
158477;2;17;2;304;419;2937;-1527;1918;6818;-2474
158487;2;17;2;304;852;2850;-1651;1073;6956;-3028
158497;2;17;2;304;1151;2702;-1542;495;6937;-3715
158507;2;17;2;304;1255;2526;-1503;296;6563;-4186
158517;2;17;2;304;1308;2285;-1481;29;6126;-4561
158527;2;17;2;304;1321;2106;-1498;-239;5806;-4949
158537;2;17;2;304;1190;1986;-1583;-160;5845;-5461
158547;2;17;2;304;905;1984;-1607;385;5988;-5985
158557;2;17;2;304;621;2076;-1819;782;5954;-6200
158567;2;17;2;304;390;2250;-1897;1071;5869;-6062
158577;2;17;2;304;505;2353;-2021;1134;5616;-5444
158587;2;17;2;304;827;2476;-2100;608;5479;-4932
158597;2;17;2;304;1041;2647;-2042;-248;5491;-4520
158607;2;17;2;304;1141;2615;-1967;-856;5563;-4144
158617;2;17;2;304;1133;2521;-2071;-958;5802;-3961
158627;2;17;2;304;1063;2239;-2384;-1036;6451;-4136
158637;2;17;2;304;914;2159;-2533;-1359;7264;-4885
158647;2;17;2;304;639;2353;-2586;-2247;7872;-5421
158657;2;17;2;304;427;2774;-2655;-3560;8295;-5682
158667;2;17;2;304;296;3139;-2674;-4709;8662;-5651
158677;2;17;2;304;389;3190;-2258;-4855;8728;-5141
158687;2;17;2;304;584;2840;-2087;-3907;8405;-4728
158697;2;17;2;304;576;2558;-2057;-3118;8184;-4480
158707;2;17;2;304;565;2298;-1891;-2786;7925;-4195
158717;2;17;2;304;681;1980;-1805;-2605;7629;-3922
158727;2;17;2;304;805;1689;-1711;-2031;7356;-3746
158737;2;17;2;304;784;1335;-1745;-1374;7019;-3623
158747;2;17;2;304;640;1144;-1959;-1503;6867;-4097
158757;2;17;2;304;201;1386;-1873;-2461;6985;-4997
158767;2;17;2;304;-247;1698;-1339;-3376;7186;-5672
158777;2;17;2;304;-569;2095;-763;-3518;7381;-5974
158787;2;17;2;304;-711;2470;-266;-2532;7442;-5910
158797;2;17;2;304;-236;2311;-398;-445;7332;-5651
158807;2;17;2;304;468;1883;-1378;1643;7293;-5745
158817;2;17;2;304;875;1724;-2643;2092;7102;-5981
158827;2;17;2;304;1129;1922;-3721;477;6594;-5723
158837;2;17;2;304;1450;1870;-4123;-1606;6150;-5558
158847;2;17;2;304;1315;2038;-4013;-2258;5916;-5813
158857;2;17;2;304;1283;2543;-3877;-1716;5731;-5946
158867;2;17;2;304;976;3550;-3808;-2093;5245;-6123
158877;2;17;2;304;742;4728;-3319;-3399;4720;-5857
158887;2;17;2;304;998;5379;-2507;-3520;4088;-5341
158897;2;17;2;304;1385;5456;-2003;-1128;3203;-4901
158907;2;17;2;304;1487;4977;-2502;2578;2420;-4735
158917;2;17;2;304;1383;4159;-3424;4864;2332;-5154
158927;2;17;2;305;1167;3719;-3963;5269;2945;-5803
158937;2;17;2;305;957;3818;-4197;4391;3775;-6111
158947;2;17;2;305;982;4059;-3816;3064;4618;-5857
158957;2;17;2;305;1034;4276;-3599;1777;5237;-5635
158967;2;17;2;305;1080;4414;-3397;727;5851;-5303
158977;2;17;2;305;1023;4451;-3257;267;6257;-4968
158987;2;17;2;305;911;4420;-3344;-54;6441;-4760
158997;2;17;2;305;750;4299;-3385;-450;6447;-4448
159007;2;17;2;305;607;3976;-3415;-693;6242;-3996
159017;2;17;2;305;555;3479;-3359;-1135;5987;-3742
159027;2;17;2;305;357;3293;-3250;-1588;5715;-3535
159037;2;17;2;305;261;3001;-2944;-1738;5364;-3256
159047;2;17;2;305;70;3020;-2326;-1667;5209;-2910
159057;2;17;2;305;36;3190;-1953;-1587;4963;-2405
159067;2;17;2;305;24;3222;-1701;-1533;4761;-1644
159077;2;17;2;305;154;3295;-1459;-1304;4649;-1114
159087;2;17;2;305;357;3398;-1338;-1008;4576;-864
159097;2;17;2;305;477;3525;-1174;-563;4527;-706
159107;2;17;2;305;605;3433;-1205;-45;4422;-608
159117;2;17;2;305;705;3230;-1271;308;4320;-612
159127;2;17;2;305;783;3013;-1505;413;4190;-734
159137;2;17;2;305;800;2801;-1559;340;3966;-814
159147;2;17;2;305;682;2686;-1664;180;3631;-747
159157;2;17;2;305;549;2587;-1636;-158;3308;-625
159167;2;17;2;305;761;2480;-1728;-399;2982;-556
159177;2;17;2;305;1030;2433;-1791;-660;2734;-941
159187;2;17;2;305;964;2645;-1522;-965;2345;-1147
159197;2;17;2;305;755;2845;-1219;-1368;1820;-911
159207;2;17;2;305;660;2830;-968;-1296;1601;-614
159217;2;17;2;305;621;2816;-971;-573;1648;-424
159227;2;17;2;305;831;2903;-1361;610;1628;-18
159237;2;17;2;305;989;3024;-1900;1331;1706;298
159247;2;17;2;305;661;3278;-2305;1365;1789;634
159257;2;17;2;305;156;3511;-2490;1451;1971;887
159267;2;17;2;305;-215;3752;-2710;1981;2131;1233
159277;2;17;2;305;-209;3724;-3133;3300;2079;1526
159287;2;17;2;305;214;3549;-3615;4505;1941;1197
159297;2;17;2;305;543;3499;-3841;5079;1305;1067
159307;2;17;2;305;778;3294;-4036;4360;236;1539
159317;2;17;2;305;959;2738;-4117;2047;-699;1916
159327;2;17;2;305;994;2615;-3657;-1063;-992;1697
159337;2;17;2;305;1157;3022;-2414;-2716;-687;1360
159347;2;17;2;305;1075;3492;-1402;-1767;-338;1027
159357;2;17;2;305;1064;3730;-1083;1102;-135;743
159367;2;17;2;305;913;3855;-1481;4006;266;384
159377;2;17;2;305;583;4144;-2182;5581;896;113
159387;2;17;2;305;231;4286;-2795;5537;1467;341
159397;2;17;2;305;138;4245;-3190;4880;1953;756
159407;2;17;2;305;457;3954;-3573;4207;2399;637
159417;2;17;2;305;720;3706;-3867;3106;2729;326
159427;2;17;2;306;858;3418;-3887;1543;2665;188
159437;2;17;2;306;1029;3086;-3664;130;2388;-5
159447;2;17;2;306;995;2881;-3309;-650;2005;-193
159457;2;17;2;306;757;2730;-2913;-993;1613;-277
159467;2;17;2;306;526;2724;-2577;-1126;1450;-477
159477;2;17;2;306;296;2735;-2274;-1001;1511;-646
159487;2;17;2;306;228;2844;-1988;-581;1698;-831
159497;2;17;2;306;192;3032;-1853;107;1759;-766
159507;2;17;2;306;297;2980;-1958;969;1590;-580
159517;2;17;2;306;423;2907;-2257;1658;1343;-330
159527;2;17;2;306;679;2778;-2521;1942;1112;-230
159537;2;17;2;306;812;2806;-2675;1857;853;-225
159547;2;17;2;306;847;2941;-2746;1687;549;-251
159557;2;17;2;306;735;3059;-2668;1787;166;-205
159567;2;17;2;306;545;3100;-2738;2062;-196;67
159577;2;17;2;306;372;3113;-2925;2194;-383;457
159587;2;17;2;306;394;3107;-3169;1849;-414;785
159597;2;17;2;306;509;3265;-3291;1012;-385;1053
159607;2;17;2;306;679;3275;-3210;68;-320;1165
159617;2;17;2;306;849;3288;-2888;-624;-285;1141
159627;2;17;2;306;1107;3201;-2725;-691;-351;975
159637;2;17;2;306;1482;3076;-2720;-355;-466;402
159647;2;17;2;306;1501;3018;-2669;-113;-666;-128
159657;2;17;2;306;1260;3000;-2483;-242;-893;-320
159667;2;17;2;306;1022;2887;-2269;-434;-957;-330
159677;2;17;2;306;1000;2760;-2186;-301;-731;-442
159687;2;17;2;306;929;2822;-2157;156;-478;-604
159697;2;17;2;306;831;2920;-2107;606;-407;-364
159707;2;17;2;306;732;2929;-2171;824;-367;-22
159717;2;17;2;306;662;2896;-2213;1041;-217;285
159727;2;17;2;306;740;2860;-2427;1278;31;465
159737;2;17;2;306;980;2877;-2669;1565;154;474
159747;2;17;2;306;1092;2870;-2959;1654;2;602
159757;2;17;2;306;1134;2816;-3153;1286;-335;811
159767;2;17;2;306;1158;2733;-3225;566;-732;1044
159777;2;17;2;306;1147;2561;-3249;-204;-1007;1103
159787;2;17;2;306;1240;2451;-3243;-900;-1021;768
159797;2;17;2;306;1222;2604;-2965;-1228;-938;329
159807;2;17;2;306;1091;2842;-2626;-1085;-1093;248
159817;2;17;2;306;945;2881;-2396;-525;-1295;422
159827;2;17;2;306;878;2866;-2376;319;-1377;623
159837;2;17;2;306;1020;2840;-2596;1089;-1251;622
159847;2;17;2;306;1081;2889;-2740;1435;-949;492
159857;2;17;2;306;1106;3005;-2864;1477;-684;444
159867;2;17;2;306;1185;3100;-2988;1349;-380;428
159877;2;17;2;306;1318;3192;-3101;1089;-121;356
159887;2;17;2;306;1350;3220;-3256;676;128;259
159897;2;17;2;306;1246;3260;-3234;10;418;74
159907;2;17;2;306;1103;3299;-3026;-694;617;8
159917;2;17;2;306;1056;3299;-2812;-1048;738;-31
