timestamp;subject_id;activity;label;seq;ax;ay;az;gx;gy;gz
347427;2;17;2;682;1047;4032;-219;-1005;255;-222
347437;2;17;2;682;939;4042;-18;-1022;319;-264
347447;2;17;2;682;884;4057;183;-907;240;-244
347457;2;17;2;682;923;4041;197;-626;77;-191
347467;2;17;2;682;920;4022;107;-407;-4;-149
347477;2;17;2;682;969;4009;45;-317;53;-146
347487;2;17;2;682;972;4008;49;-226;138;-157
347497;2;17;2;682;1024;4031;52;-155;118;-180
347507;2;17;2;682;1029;4046;48;-160;50;-158
347517;2;17;2;682;1022;4022;15;-249;0;-130
347527;2;17;2;682;990;4035;-33;-272;47;-124
347537;2;17;2;682;976;4037;-25;-234;127;-110
347547;2;17;2;682;984;4062;-40;-248;237;-109
347557;2;17;2;682;1005;4077;-15;-292;347;-120
347567;2;17;2;682;1023;4082;24;-319;384;-89
347577;2;17;2;682;986;4092;33;-384;373;-57
347587;2;17;2;682;994;4085;36;-429;303;-7
347597;2;17;2;682;982;4060;0;-475;223;36
347607;2;17;2;682;996;4074;-67;-511;195;77
347617;2;17;2;682;980;4092;-60;-554;181;114
347627;2;17;2;682;1003;4077;-30;-555;131;150
347637;2;17;2;682;1013;4101;16;-529;53;183
347647;2;17;2;682;1027;4100;-14;-521;-35;198
347657;2;17;2;682;1021;4051;21;-474;29;173
347667;2;17;2;682;1014;4063;107;-323;94;141
347677;2;17;2;682;968;4054;141;-208;121;144
347687;2;17;2;682;983;4048;127;-189;116;152
347697;2;17;2;682;978;4018;88;-247;152;151
347707;2;17;2;682;998;3979;18;-296;255;143
347717;2;17;2;682;1010;3985;45;-330;328;141
347727;2;17;2;682;1023;4012;73;-334;319;128
347737;2;17;2;682;1040;4026;135;-308;240;133
347747;2;17;2;682;1042;4021;95;-235;142;161
347757;2;17;2;682;1019;4030;76;-195;165;117
347767;2;17;2;682;984;4046;66;-225;165;80
347777;2;17;2;682;971;4043;100;-286;227;44
347787;2;17;2;682;954;4043;142;-312;285;10
347797;2;17;2;682;960;4065;130;-341;367;-27
347807;2;17;2;682;960;4088;158;-404;363;-20
347817;2;17;2;682;969;4073;127;-409;306;2
347827;2;17;2;682;981;4040;117;-363;279;21
347837;2;17;2;682;967;4033;76;-281;321;8
347847;2;17;2;682;980;4031;66;-233;405;-12
347857;2;17;2;682;986;4060;76;-200;446;-39
347867;2;17;2;682;949;4101;104;-238;405;-32
347877;2;17;2;682;923;4113;123;-352;310;-3
347887;2;17;2;682;884;4111;175;-422;259;20
347897;2;17;2;682;848;4093;257;-334;189;42
347907;2;17;2;682;859;4105;288;-175;44;74
347917;2;17;2;682;878;4104;313;-44;-66;102
347927;2;17;2;683;887;4083;254;58;-118;130
347937;2;17;2;683;902;4096;269;97;-165;102
347947;2;17;2;683;944;4128;272;23;-292;161
347957;2;17;2;683;995;4015;34;-235;-238;191
347967;2;17;2;683;1048;3980;-127;-530;46;-9
347977;2;17;2;683;1028;4009;-90;-690;186;-89
347987;2;17;2;683;986;4045;75;-857;126;-117
347997;2;17;2;683;902;4137;264;-1026;-58;-118
348007;2;17;2;683;912;4135;346;-986;-317;-77
348017;2;17;2;683;908;4103;285;-736;-509;-30
348027;2;17;2;683;904;4083;193;-573;-482;-54
348037;2;17;2;683;952;4059;98;-543;-412;-95
348047;2;17;2;683;982;4036;34;-632;-360;-104
348057;2;17;2;683;1039;4022;-2;-803;-356;-84
348067;2;17;2;683;1050;3982;6;-1022;-431;-24
348077;2;17;2;683;1074;3966;-10;-1214;-557;26
348087;2;17;2;683;1054;3921;-17;-1419;-681;92
348097;2;17;2;683;1069;3861;-11;-1530;-816;148
348107;2;17;2;683;1070;3797;-36;-1628;-1053;233
348117;2;17;2;683;1068;3753;-117;-1883;-1346;362
348127;2;17;2;683;1097;3674;-150;-2289;-1648;481
348137;2;17;2;683;1126;3650;-106;-2630;-1872;564
348147;2;17;2;683;1154;3622;1;-2740;-1975;598
348157;2;17;2;683;1225;3572;118;-2732;-1910;565
348167;2;17;2;683;1250;3657;338;-2559;-1792;534
348177;2;17;2;683;1338;3659;564;-2028;-1523;460
348187;2;17;2;683;1277;3799;914;-1233;-1061;280
348197;2;17;2;683;1204;3869;976;-451;-729;152
348207;2;17;2;683;1197;3952;870;-60;-547;-5
348217;2;17;2;683;1146;4029;676;278;-429;-129
348227;2;17;2;683;1104;4089;423;785;-446;-169
348237;2;17;2;683;1036;4116;51;1183;-612;-151
348247;2;17;2;683;1035;4176;-264;1251;-826;-108
348257;2;17;2;683;994;4193;-381;1045;-1005;-31
348267;2;17;2;683;958;4197;-326;604;-1079;-1
348277;2;17;2;683;973;4167;-75;26;-1069;15
348287;2;17;2;683;1044;4131;242;-298;-967;-41
348297;2;17;2;683;1205;4095;585;-196;-831;-196
348307;2;17;2;683;1346;4089;816;154;-728;-393
348317;2;17;2;683;1442;4032;915;523;-722;-593
348327;2;17;2;683;1509;3982;919;791;-622;-868
348337;2;17;2;683;1490;3911;863;1107;-346;-1177
348347;2;17;2;683;1453;3903;878;1682;-43;-1443
348357;2;17;2;683;1409;3991;867;2199;-47;-1564
348367;2;17;2;683;1324;4030;659;2452;-289;-1521
348377;2;17;2;683;1251;4052;313;2467;-458;-1554
348387;2;17;2;683;1175;4118;41;2322;-633;-1506
348397;2;17;2;683;1087;4180;-169;1961;-813;-1401
348407;2;17;2;683;977;4162;-133;1271;-1177;-1210
348417;2;17;2;683;867;4236;14;416;-1754;-895
348427;2;17;2;684;954;4148;137;-395;-2377;-566
348437;2;17;2;684;1054;4093;236;-918;-2664;-505
348447;2;17;2;684;1154;4086;351;-1231;-2879;-457
348457;2;17;2;684;1226;4028;480;-1272;-3024;-445
348467;2;17;2;684;1297;3983;589;-1128;-3151;-484
348477;2;17;2;684;1278;3894;606;-846;-3257;-470
348487;2;17;2;684;1274;3793;553;-648;-3301;-447
348497;2;17;2;684;1265;3752;546;-678;-3286;-490
348507;2;17;2;684;1316;3742;487;-740;-3252;-569
348517;2;17;2;684;1337;3765;214;-724;-2944;-649
348527;2;17;2;684;1344;3759;238;-685;-2806;-721
348537;2;17;2;684;1319;3832;362;-667;-2936;-706
348547;2;17;2;684;1270;3940;578;-520;-3080;-607
348557;2;17;2;684;1263;3989;672;-212;-3256;-533
348567;2;17;2;684;1382;3985;557;8;-3309;-556
348577;2;17;2;684;1516;4002;491;-45;-3154;-757
348587;2;17;2;684;1626;4036;514;-181;-3025;-1022
348597;2;17;2;684;1691;4073;498;-183;-2942;-1260
348607;2;17;2;684;1744;4145;396;13;-2848;-1448
348617;2;17;2;684;1770;4085;345;295;-2742;-1555
348627;2;17;2;684;1636;4124;302;489;-2765;-1697
348637;2;17;2;684;1417;4279;302;617;-2934;-1538
348647;2;17;2;684;1119;4306;289;830;-3062;-1253
348657;2;17;2;684;821;4384;250;1126;-2905;-991
348667;2;17;2;684;685;4434;98;1355;-2498;-822
348677;2;17;2;684;605;4557;-78;1519;-1977;-740
348687;2;17;2;684;665;4463;-383;1299;-1452;-577
348697;2;17;2;684;690;4553;-647;591;-970;-251
348707;2;17;2;684;830;4330;-732;-381;-800;-78
348717;2;17;2;684;867;4270;-695;-1562;-767;-57
348727;2;17;2;684;844;4204;-315;-2448;-801;-24
348737;2;17;2;684;722;4156;167;-2556;-916;20
348747;2;17;2;684;604;4138;446;-1820;-1028;161
348757;2;17;2;684;532;4069;488;-428;-968;303
348767;2;17;2;684;507;4008;73;609;-971;403
348777;2;17;2;684;486;3902;-338;667;-1116;466
348787;2;17;2;684;400;3987;-517;278;-1268;483
348797;2;17;2;684;370;4103;-558;-117;-1616;670
348807;2;17;2;684;337;4250;-648;-311;-1978;792
348817;2;17;2;684;417;4241;-702;-424;-2284;802
348827;2;17;2;684;401;4419;-662;-640;-2523;653
348837;2;17;2;684;448;4360;-677;-939;-2730;648
348847;2;17;2;684;537;4311;-706;-1313;-2906;449
348857;2;17;2;684;609;4294;-559;-1632;-3036;191
348867;2;17;2;684;671;4223;-477;-1564;-2960;-150
348877;2;17;2;684;651;4178;-247;-1279;-2627;-493
348887;2;17;2;684;539;4160;-70;-823;-2392;-792
348897;2;17;2;684;461;4103;-31;-565;-2265;-945
348907;2;17;2;684;381;4059;-59;-481;-2190;-1041
348917;2;17;2;684;351;3947;-20;-441;-2134;-1105
348927;2;17;2;685;295;3909;-72;-309;-2064;-1083
348937;2;17;2;685;343;3881;-133;-211;-1938;-1059
348947;2;17;2;685;396;3826;-62;-64;-1818;-978
348957;2;17;2;685;510;3834;-18;71;-1817;-873
348967;2;17;2;685;607;3851;-1;78;-1940;-757
348977;2;17;2;685;669;3872;37;97;-2006;-667
348987;2;17;2;685;706;3905;110;224;-1952;-659
348997;2;17;2;685;719;3931;201;468;-1847;-712
349007;2;17;2;685;674;3996;218;720;-1767;-791
349017;2;17;2;685;560;4089;158;870;-1703;-830
349027;2;17;2;685;425;4156;96;1025;-1582;-832
349037;2;17;2;685;319;4187;-17;1085;-1491;-812
349047;2;17;2;685;284;4218;-88;1010;-1491;-777
349057;2;17;2;685;246;4298;-212;702;-1536;-677
349067;2;17;2;685;259;4281;-406;201;-1491;-527
349077;2;17;2;685;291;4230;-477;-248;-1438;-434
349087;2;17;2;685;347;4197;-398;-771;-1462;-336
349097;2;17;2;685;383;4177;-135;-1272;-1546;-264
349107;2;17;2;685;376;4151;81;-1503;-1524;-223
349117;2;17;2;685;384;4091;245;-1289;-1339;-247
349127;2;17;2;685;409;4060;358;-738;-978;-287
349137;2;17;2;685;390;4042;352;-410;-799;-350
349147;2;17;2;685;374;4046;299;-165;-679;-385
349157;2;17;2;685;313;4082;205;132;-509;-343
349167;2;17;2;685;348;4014;6;357;-406;-373
349177;2;17;2;685;340;4065;-57;151;-409;-546
349187;2;17;2;685;336;4113;-18;91;-502;-489
349197;2;17;2;685;337;4116;-15;-72;-727;-408
349207;2;17;2;685;363;4097;69;-253;-964;-300
349217;2;17;2;685;429;4077;83;-474;-1215;-277
349227;2;17;2;685;413;4043;152;-478;-1272;-169
349237;2;17;2;685;458;4010;155;-461;-1343;-135
349247;2;17;2;685;489;3992;218;-469;-1411;-133
349257;2;17;2;685;464;4025;245;-300;-1466;34
349267;2;17;2;685;503;3942;105;-120;-1463;127
349277;2;17;2;685;558;3897;31;-62;-1300;67
349287;2;17;2;685;552;3906;33;-13;-1124;96
349297;2;17;2;685;573;3946;27;-52;-1048;73
349307;2;17;2;685;568;3973;78;-59;-969;221
349317;2;17;2;685;544;3962;120;59;-930;289
349327;2;17;2;685;505;4002;109;70;-838;353
349337;2;17;2;685;477;4025;92;-5;-671;345
349347;2;17;2;685;446;4055;119;-77;-468;417
349357;2;17;2;685;415;4052;120;-130;-295;476
349367;2;17;2;685;401;4051;82;-117;-117;596
349377;2;17;2;685;414;4046;110;7;20;617
349387;2;17;2;685;531;3997;83;174;77;535
349397;2;17;2;685;509;4097;94;305;95;352
349407;2;17;2;685;528;4085;71;354;0;302
349417;2;17;2;685;554;4114;46;360;-142;215
349427;2;17;2;686;509;4154;51;356;-264;202
349437;2;17;2;686;480;4104;67;315;-355;186
349447;2;17;2;686;412;4106;81;267;-331;127
349457;2;17;2;686;427;4115;211;213;-314;121
349467;2;17;2;686;447;4118;279;140;-434;146
349477;2;17;2;686;527;4134;328;84;-619;193
349487;2;17;2;686;591;4104;303;97;-748;202
349497;2;17;2;686;656;4078;262;90;-812;178
349507;2;17;2;686;669;4067;264;55;-886;152
349517;2;17;2;686;686;4061;200;-22;-951;167
349527;2;17;2;686;661;4064;114;-122;-866;173
349537;2;17;2;686;627;4078;132;-180;-781;178
349547;2;17;2;686;580;4089;110;-262;-768;248
349557;2;17;2;686;516;4089;53;-493;-640;366
349567;2;17;2;686;550;4126;91;-737;-414;417
349577;2;17;2;686;574;4137;161;-856;-316;487
349587;2;17;2;686;631;4154;201;-965;-449;623
349597;2;17;2;686;654;4106;167;-1210;-585;744
349607;2;17;2;686;661;4020;66;-1481;-458;766
349617;2;17;2;686;601;3927;103;-1414;-76;748
349627;2;17;2;686;552;3859;202;-1161;226;786
349637;2;17;2;686;460;3874;320;-1085;377;941
349647;2;17;2;686;471;3912;525;-1123;280;1277
349657;2;17;2;686;684;3980;629;-1094;-60;1507
349667;2;17;2;686;1022;4306;560;-654;-264;1442
349677;2;17;2;686;1246;4709;579;342;-97;1157
349687;2;17;2;686;1183;5015;656;1570;-35;699
349697;2;17;2;686;958;5266;579;3111;-241;82
349707;2;17;2;686;625;5123;-38;4815;-637;-425
349717;2;17;2;686;133;5130;-1099;5383;-1169;-746
349727;2;17;2;686;-203;5195;-2234;4304;-2042;-519
349737;2;17;2;686;-302;4843;-2866;2427;-2618;189
349747;2;17;2;686;-161;4234;-3199;-449;-3032;735
349757;2;17;2;686;-123;3968;-3118;-4804;-3297;1562
349767;2;17;2;686;214;3625;-2169;-9281;-3109;2235
349777;2;17;2;686;673;3386;350;-11392;-2066;2027
349787;2;17;2;686;634;3952;3038;-3162;-690;1164
349797;2;17;2;686;486;3979;813;2202;-1101;1703
349807;2;17;2;686;1107;3293;-41;1049;-1996;2085
349817;2;17;2;686;1618;2900;-230;-280;-1726;1385
349827;2;17;2;686;1340;3471;0;-1198;-1398;722
349837;2;17;2;686;1134;3852;337;-1203;-1580;402
349847;2;17;2;686;1059;3895;164;-966;-2080;270
349857;2;17;2;686;903;4043;-166;-918;-2549;128
349867;2;17;2;686;737;4190;-354;-730;-2812;156
349877;2;17;2;686;520;4435;-446;-527;-2986;147
349887;2;17;2;686;436;4639;-427;-384;-2938;76
349897;2;17;2;686;465;4816;-269;-603;-2955;-47
349907;2;17;2;686;482;4900;-115;-1038;-3225;-122
349917;2;17;2;686;568;4821;-132;-1411;-3721;-384
349927;2;17;2;687;602;4649;-226;-1863;-4134;-601
349937;2;17;2;687;680;4310;-213;-2276;-4478;-830
349947;2;17;2;687;788;4071;-97;-2493;-4750;-974
349957;2;17;2;687;839;3865;-31;-2525;-4961;-1101
349967;2;17;2;687;857;3606;79;-2293;-5163;-1206
349977;2;17;2;687;764;3430;139;-1650;-5552;-998
349987;2;17;2;687;594;3275;-33;-1027;-6048;-237
349997;2;17;2;687;619;3346;-136;-906;-6337;528
350007;2;17;2;687;723;3688;-42;-1275;-6485;885
350017;2;17;2;687;865;3959;214;-1807;-6671;1019
350027;2;17;2;687;911;4117;410;-1976;-6933;859
350037;2;17;2;687;780;4124;394;-1729;-7256;678
350047;2;17;2;687;607;4047;195;-1016;-7593;535
350057;2;17;2;687;592;4000;16;-225;-7786;425
350067;2;17;2;687;595;3991;-170;158;-7927;379
350077;2;17;2;687;691;3974;-267;192;-8052;397
350087;2;17;2;687;832;3972;-324;-74;-8043;258
350097;2;17;2;687;945;4016;-201;-450;-7980;86
350107;2;17;2;687;987;4019;-98;-786;-8063;-25
350117;2;17;2;687;982;4052;41;-1038;-8163;-79
350127;2;17;2;687;984;4040;129;-1191;-8172;-160
350137;2;17;2;687;996;4029;148;-1248;-8074;-272
350147;2;17;2;687;1031;4076;208;-987;-7973;-460
350157;2;17;2;687;1123;4039;229;-612;-7981;-636
350167;2;17;2;687;1024;3935;76;-515;-7969;-777
350177;2;17;2;687;741;3712;-200;-1058;-7950;-804
350187;2;17;2;687;408;3852;-258;-1971;-7860;-703
350197;2;17;2;687;248;4063;4;-2225;-7666;-464
350207;2;17;2;687;347;4344;350;-1322;-7242;-372
350217;2;17;2;687;438;4456;488;-20;-6665;-607
350227;2;17;2;687;288;4552;282;1065;-6431;-713
350237;2;17;2;687;452;4311;-484;1694;-7092;-662
350247;2;17;2;687;289;4266;-1431;1746;-7652;-425
350257;2;17;2;687;248;3924;-1948;764;-7810;-295
350267;2;17;2;687;211;3765;-1867;-952;-7872;67
350277;2;17;2;687;113;3697;-1454;-3125;-8338;397
350287;2;17;2;687;22;3928;-760;-5021;-8826;821
350297;2;17;2;687;267;4129;297;-5777;-8869;1191
350307;2;17;2;687;565;4350;1207;-4687;-8343;963
350317;2;17;2;687;828;4458;1478;-1926;-7630;532
350327;2;17;2;687;1032;4394;863;349;-7128;97
350337;2;17;2;687;1170;4226;17;774;-6860;-455
350347;2;17;2;687;972;4139;-456;174;-6311;-871
350357;2;17;2;687;693;4022;-415;-468;-5935;-1056
350367;2;17;2;687;452;4014;-311;-980;-5896;-962
350377;2;17;2;687;400;3926;-241;-1422;-6004;-756
350387;2;17;2;687;383;3937;-142;-1693;-6032;-524
350397;2;17;2;687;414;3920;50;-1791;-5970;-283
350407;2;17;2;687;503;3899;281;-1637;-5932;-132
350417;2;17;2;687;578;3904;403;-1302;-5759;-83
350427;2;17;2;688;666;3939;472;-987;-5385;-176
350437;2;17;2;688;698;3959;490;-642;-4934;-359
350447;2;17;2;688;649;3980;515;-185;-4283;-489
350457;2;17;2;688;788;3826;478;264;-3867;-740
350467;2;17;2;688;697;3892;345;526;-3502;-836
350477;2;17;2;688;616;3831;274;615;-3189;-811
350487;2;17;2;688;545;3821;203;472;-2960;-766
350497;2;17;2;688;409;3849;126;118;-2867;-628
350507;2;17;2;688;296;3885;178;-306;-2802;-387
350517;2;17;2;688;180;3937;235;-583;-2756;-179
350527;2;17;2;688;89;4003;381;-729;-2751;72
350537;2;17;2;688;63;4025;433;-664;-2851;295
350547;2;17;2;688;156;4016;365;-573;-2885;469
350557;2;17;2;688;290;3969;295;-467;-2733;511
350567;2;17;2;688;392;3946;240;-410;-2510;540
350577;2;17;2;688;522;3950;162;-628;-2340;496
350587;2;17;2;688;528;4018;250;-1139;-2205;437
350597;2;17;2;688;516;3984;425;-1352;-2031;338
350607;2;17;2;688;411;3989;534;-1243;-1829;236
350617;2;17;2;688;256;4033;612;-949;-1879;215
350627;2;17;2;688;74;4001;478;-652;-1898;313
350637;2;17;2;688;-22;3922;379;-316;-1747;377
350647;2;17;2;688;-47;3900;403;-42;-1628;499
350657;2;17;2;688;16;3910;472;92;-1700;644
350667;2;17;2;688;101;3930;421;305;-1796;698
350677;2;17;2;688;255;3905;292;631;-1764;651
350687;2;17;2;688;335;3977;297;790;-1667;494
350697;2;17;2;688;332;4088;425;886;-1616;347
350707;2;17;2;688;307;4101;458;1131;-1539;259
350717;2;17;2;688;210;4149;410;1358;-1352;155
350727;2;17;2;688;144;4236;362;1436;-1264;121
350737;2;17;2;688;144;4264;293;1478;-1124;92
350747;2;17;2;688;113;4375;341;1517;-873;75
350757;2;17;2;688;28;4437;306;1585;-623;59
350767;2;17;2;688;21;4522;318;1670;-382;25
350777;2;17;2;688;40;4621;349;1670;-268;70
350787;2;17;2;688;65;4657;480;1651;-268;194
350797;2;17;2;688;104;4600;415;1649;-345;198
350807;2;17;2;688;136;4596;239;1424;-356;135
350817;2;17;2;688;202;4492;211;1134;-387;42
350827;2;17;2;688;166;4475;10;989;-269;-181
350837;2;17;2;688;100;4435;55;945;16;-276
350847;2;17;2;688;41;4402;74;801;152;-260
350857;2;17;2;688;13;4335;340;705;95;-47
350867;2;17;2;688;65;4310;413;1072;-162;138
350877;2;17;2;688;265;4382;131;1426;-495;411
350887;2;17;2;688;540;4563;-68;1702;-634;526
350897;2;17;2;688;653;4677;-332;2156;-226;257
350907;2;17;2;688;701;4746;-907;2768;413;-81
350917;2;17;2;688;751;4975;-1356;3656;1042;-424
350927;2;17;2;689;636;5341;-1600;4063;919;-446
350937;2;17;2;689;793;5443;-1937;3938;48;-23
350947;2;17;2;689;1024;5375;-2364;3432;-1117;531
350957;2;17;2;689;1375;5104;-2634;1861;-2256;739
350967;2;17;2;689;1647;4738;-2555;-143;-3149;657
350977;2;17;2;689;1991;4423;-2029;-1615;-3680;482
350987;2;17;2;689;2354;4159;-816;-1385;-3616;351
350997;2;17;2;689;2372;4046;482;3044;-2638;-441
351007;2;17;2;689;1959;3610;-853;5489;-1551;-1213
351017;2;17;2;689;1876;2627;-1282;4503;-1468;-2456
351027;2;17;2;689;1772;2718;-1071;4004;-1234;-2194
351037;2;17;2;689;1409;2985;-1239;3896;-1308;-1015
351047;2;17;2;689;1089;3203;-1186;3934;-1296;438
351057;2;17;2;689;917;3080;-1285;4342;-738;1130
351067;2;17;2;689;1054;3376;-1415;4565;145;1452
351077;2;17;2;689;1195;3568;-1394;4801;1133;1342
351087;2;17;2;689;1253;3809;-1216;5091;1988;1170
351097;2;17;2;689;1342;3828;-1165;5540;2587;957
351107;2;17;2;689;1444;3807;-1168;5607;3096;423
351117;2;17;2;689;1386;3976;-1142;5392;3270;-66
351127;2;17;2;689;1339;3955;-1004;5342;3299;-486
351137;2;17;2;689;1190;4038;-760;5217;3249;-505
351147;2;17;2;689;950;4094;-332;5112;3059;-348
351157;2;17;2;689;934;3808;-170;4811;2493;-314
351167;2;17;2;689;987;3694;-480;4075;1867;-267
351177;2;17;2;689;1059;3685;-995;3153;1965;-212
351187;2;17;2;689;908;3719;-1145;2752;2508;-239
351197;2;17;2;689;955;3741;-1164;2495;2422;-95
351207;2;17;2;689;631;3799;-1471;1855;1872;170
351217;2;17;2;689;486;3738;-1638;277;764;821
351227;2;17;2;689;623;3802;-1609;-1438;-555;1183
351237;2;17;2;689;774;3874;-1542;-2491;-1689;1150
351247;2;17;2;689;784;3780;-1603;-2706;-2373;900
351257;2;17;2;689;968;3441;-1631;-2162;-2727;520
351267;2;17;2;689;1127;3399;-1582;-1729;-3020;-10
351277;2;17;2;689;1027;3409;-1330;-1411;-3138;-325
351287;2;17;2;689;969;3181;-963;-631;-2739;-796
351297;2;17;2;689;949;3087;-939;359;-2110;-1082
351307;2;17;2;689;997;3021;-1219;1395;-1073;-1592
351317;2;17;2;689;1094;2884;-1191;2137;30;-2182
351327;2;17;2;689;1143;3013;-1325;2428;511;-2276
351337;2;17;2;689;1118;2937;-1465;2460;652;-2128
351347;2;17;2;689;1010;3017;-1139;2969;812;-2301
351357;2;17;2;689;1015;2739;-1689;4891;-235;-1404
351367;2;17;2;689;848;2841;-1256;4649;443;-1488
351377;2;17;2;689;814;2926;-1321;4467;-102;-958
351387;2;17;2;689;660;3163;-1294;4233;-458;-658
351397;2;17;2;689;593;3393;-1125;4242;-836;-229
351407;2;17;2;689;567;3542;-1046;4417;-1393;195
351417;2;17;2;689;489;3592;-1099;4696;-2065;604
351427;2;17;2;690;429;3508;-1267;5046;-2543;770
351437;2;17;2;690;451;3439;-1479;5555;-2875;743
351447;2;17;2;690;592;3404;-1891;6026;-3150;950
351457;2;17;2;690;714;3336;-2212;6067;-3355;1233
351467;2;17;2;690;1085;3133;-2423;5566;-3664;1370
351477;2;17;2;690;1215;3046;-2375;4624;-3945;1446
351487;2;17;2;690;1142;3075;-2121;3721;-3644;1076
351497;2;17;2;690;985;3404;-1279;3699;-2888;575
351507;2;17;2;690;866;3433;-897;4507;-2634;325
351517;2;17;2;690;994;3363;-1097;5245;-2707;112
351527;2;17;2;690;1055;3228;-1338;5633;-2719;-25
351537;2;17;2;690;917;3146;-1382;5878;-2675;-157
351547;2;17;2;690;870;3154;-1485;6115;-2616;-141
351557;2;17;2;690;992;3169;-1490;6023;-2480;-232
351567;2;17;2;690;1130;3376;-1279;5926;-2758;-193
351577;2;17;2;690;1277;3431;-1385;5962;-3173;-150
351587;2;17;2;690;1149;3392;-1544;5720;-3141;-36
351597;2;17;2;690;999;3180;-1600;5467;-2923;-225
351607;2;17;2;690;1003;2898;-1555;4999;-2659;-189
351617;2;17;2;690;827;2592;-1231;4873;-2538;-113
351627;2;17;2;690;649;2411;-967;5559;-2283;-159
351637;2;17;2;690;395;2183;-978;6393;-1945;27
351647;2;17;2;690;264;1888;-1218;6756;-1554;448
351657;2;17;2;690;298;1645;-1294;7044;-1430;1048
351667;2;17;2;690;424;1430;-1494;7492;-1640;1680
351677;2;17;2;690;412;1243;-1513;8021;-1652;2075
351687;2;17;2;690;321;1257;-1346;8291;-1978;2430
351697;2;17;2;690;127;1168;-1299;7909;-2419;2964
351707;2;17;2;690;103;1034;-1453;6944;-2550;3175
351717;2;17;2;690;160;1102;-1531;5251;-2288;2956
351727;2;17;2;690;520;807;-1515;4340;-1665;2265
351737;2;17;2;690;838;633;-1632;4592;-1158;1266
351747;2;17;2;690;895;111;-2001;5995;-1050;225
351757;2;17;2;690;634;-367;-2707;8167;-1266;-489
351767;2;17;2;690;77;-718;-3564;10859;-1025;-531
351777;2;17;2;690;-528;-849;-4692;12445;-1053;616
351787;2;17;2;690;-871;-487;-5879;12348;-687;2056
351797;2;17;2;690;-767;409;-6955;11624;-137;3398
351807;2;17;2;690;-247;1245;-7621;10206;196;3941
351817;2;17;2;690;709;1886;-7358;9720;382;3200
351827;2;17;2;690;1083;2194;-6581;9321;-695;2825
351837;2;17;2;690;1205;1930;-5242;8248;-2677;2622
351847;2;17;2;690;1122;1275;-3978;7901;-3085;1991
351857;2;17;2;690;1053;863;-3047;8012;-2160;1077
351867;2;17;2;690;388;859;-2574;8230;-934;199
351877;2;17;2;690;-210;816;-2662;8714;91;-437
351887;2;17;2;690;-626;873;-3419;8607;370;-496
351897;2;17;2;690;-616;975;-4434;7387;-90;-273
351907;2;17;2;690;-13;592;-5152;5903;-403;-652
351917;2;17;2;690;248;478;-4934;5142;-716;-1254
351927;2;17;2;691;169;306;-4396;5686;-941;-1306
351937;2;17;2;691;133;260;-4059;6880;-689;-1251
351947;2;17;2;691;-94;302;-3549;7375;216;-1425
351957;2;17;2;691;-636;419;-3067;7398;996;-1533
351967;2;17;2;691;-1004;470;-3259;6375;1762;-1567
351977;2;17;2;691;-986;811;-3729;4702;2644;-1966
351987;2;17;2;691;-585;643;-4016;3817;3322;-2595
351997;2;17;2;691;426;-108;-4318;4284;3551;-3160
352007;2;17;2;691;696;-49;-4675;3685;3081;-3160
352017;2;17;2;691;399;-139;-4436;4348;2301;-3204
352027;2;17;2;691;-432;219;-3268;6177;1584;-3035
352037;2;17;2;691;-562;66;-2678;8052;1154;-2341
352047;2;17;2;691;-185;1;-2359;8020;1775;-1977
352057;2;17;2;691;514;383;-2662;4427;3276;-1949
352067;2;17;2;691;1353;1305;-2556;-351;4883;-2698
352077;2;17;2;691;1216;1031;-3462;-3308;4557;-3844
352087;2;17;2;691;-121;170;-4866;-1735;3043;-5028
352097;2;17;2;691;-818;-1355;-5735;2061;1345;-4313
352107;2;17;2;691;12;-2859;-6080;3481;-484;-1608
352117;2;17;2;691;503;-3538;-7698;767;-207;-94
352127;2;17;2;691;1032;-3226;-7483;-641;975;-741
352137;2;17;2;691;1780;-3024;-9166;-889;216;-1392
352147;2;17;2;691;2460;-3286;-8824;-1826;-2485;-3340
352157;2;17;2;691;1458;-1510;-5803;-1811;-7767;-3107
352167;2;17;2;691;-9;-1895;-3521;237;-12720;532
352177;2;17;2;691;-899;-2777;-4047;2246;-12522;3902
352187;2;17;2;691;156;-2108;-4638;738;-9149;4692
352197;2;17;2;691;1220;-883;-3653;-1534;-7193;3397
352207;2;17;2;691;1073;-448;-3438;-2074;-6900;2315
352217;2;17;2;691;883;-1058;-4610;-1010;-6735;599
352227;2;17;2;691;487;-1860;-6084;92;-6781;-111
352237;2;17;2;691;895;-3314;-6857;77;-7062;515
352247;2;17;2;691;1265;-3693;-6533;-1575;-7852;1317
352257;2;17;2;691;1457;-3702;-5579;-2775;-8578;1737
352267;2;17;2;691;1083;-3274;-4896;-819;-7929;873
352277;2;17;2;691;882;-2998;-4826;3038;-6681;-62
352287;2;17;2;691;1572;-3515;-5027;5913;-5122;-633
352297;2;17;2;691;2391;-3913;-5021;7193;-2538;-1451
352307;2;17;2;691;2376;-4169;-4946;8068;872;-2548
352317;2;17;2;691;1461;-3393;-4895;8333;4174;-3710
352327;2;17;2;691;481;-2538;-5365;6972;6554;-4107
352337;2;17;2;691;459;-1899;-5585;5836;7394;-4965
352347;2;17;2;691;-443;-1647;-5012;5041;6047;-5519
352357;2;17;2;691;-2223;-2169;-4521;4538;3904;-4901
352367;2;17;2;691;-3824;-2453;-4474;4362;2469;-3705
352377;2;17;2;691;-5040;-2045;-3814;4088;1424;-2145
352387;2;17;2;691;-4805;-1159;-2949;3977;-802;811
352397;2;17;2;691;-3435;-1587;-3636;4470;-2218;3235
352407;2;17;2;691;-1746;-1840;-4405;4214;-1965;3617
352417;2;17;2;691;-419;-2346;-4741;2861;-1905;3470
352427;2;17;2;692;342;-2496;-5045;1524;-2171;2711
352437;2;17;2;692;245;-2342;-4526;923;-2819;1782
352447;2;17;2;692;-390;-1802;-4118;1069;-3612;1304
352457;2;17;2;692;-403;-1972;-3856;1020;-4341;1370
352467;2;17;2;692;-133;-2096;-3953;428;-4539;1299
352477;2;17;2;692;174;-2032;-3819;994;-3811;681
352487;2;17;2;692;-364;-1617;-3695;1384;-2926;-160
352497;2;17;2;692;-1213;-1336;-3813;930;-2098;-923
352507;2;17;2;692;-1800;-1326;-3823;251;-1401;-1375
352517;2;17;2;692;-1981;-1429;-3851;-138;-1387;-1184
352527;2;17;2;692;-1572;-1442;-4017;-81;-1773;-582
352537;2;17;2;692;-996;-1427;-4069;255;-1984;51
352547;2;17;2;692;-537;-1237;-3892;524;-1862;609
352557;2;17;2;692;37;-1386;-3770;237;-1697;489
352567;2;17;2;692;300;-1052;-3437;-244;-1115;76
352577;2;17;2;692;411;-1093;-3641;-722;-254;-407
352587;2;17;2;692;119;-1161;-3624;-1255;663;-1013
352597;2;17;2;692;-323;-965;-3697;-1435;965;-1282
352607;2;17;2;692;-595;-967;-4127;-1510;846;-1134
352617;2;17;2;692;-633;-1192;-4415;-1440;812;-1051
352627;2;17;2;692;-663;-1308;-4421;-1085;1091;-1120
352637;2;17;2;692;-606;-1395;-4219;-699;1554;-1176
352647;2;17;2;692;-561;-1308;-4108;-387;1973;-1319
352657;2;17;2;692;-584;-1223;-4159;-857;1917;-1355
352667;2;17;2;692;-732;-1164;-4004;-1399;1426;-1327
352677;2;17;2;692;-828;-1198;-3960;-1251;903;-939
352687;2;17;2;692;-775;-1354;-4074;-930;408;-254
352697;2;17;2;692;-482;-1427;-4210;-902;221;148
352707;2;17;2;692;-278;-1151;-4201;-986;452;389
352717;2;17;2;692;-247;-887;-4043;-1258;495;805
352727;2;17;2;692;-211;-870;-4122;-1732;343;1256
352737;2;17;2;692;-179;-1041;-4133;-2392;221;1615
352747;2;17;2;692;-147;-1174;-4005;-2810;-222;1798
352757;2;17;2;692;-158;-1289;-3976;-2706;-584;1900
352767;2;17;2;692;-305;-1283;-3987;-2176;-473;1677
352777;2;17;2;692;-327;-600;-3484;-676;-259;1672
352787;2;17;2;692;-15;-722;-3184;1761;-903;1368
352797;2;17;2;692;-27;-955;-3662;4363;-1744;901
352807;2;17;2;692;-172;-1170;-4184;5379;-2096;462
352817;2;17;2;692;-274;-1273;-4507;5444;-2153;253
352827;2;17;2;692;-672;-1386;-4537;4794;-2164;521
352837;2;17;2;692;-1084;-1750;-4322;3679;-2231;1279
352847;2;17;2;692;-1547;-1950;-4060;2397;-2191;2085
352857;2;17;2;692;-2003;-2129;-3787;1221;-1718;2686
352867;2;17;2;692;-2013;-2458;-3682;718;-788;2570
352877;2;17;2;692;-1696;-2244;-3757;593;215;1736
352887;2;17;2;692;-1137;-1734;-4115;464;-22;1663
352897;2;17;2;692;-464;-1639;-4451;556;-1194;2372
352907;2;17;2;692;-82;-1787;-4786;915;-2820;3224
352917;2;17;2;692;-308;-1997;-5516;713;-3885;3742
352927;2;17;2;693;-580;-2330;-5499;-203;-3824;3813
352937;2;17;2;693;-982;-2463;-4850;-1382;-3447;3759
352947;2;17;2;693;-1454;-2295;-4203;-3031;-2956;3948
352957;2;17;2;693;-1721;-2128;-3519;-4660;-2287;4416
352967;2;17;2;693;-1861;-1964;-3148;-5870;-1593;4555
352977;2;17;2;693;-1860;-1566;-3342;-6324;-961;4308
352987;2;17;2;693;-1341;-1581;-3630;-5128;-374;4313
352997;2;17;2;693;-661;-1809;-4324;-3349;-561;4560
353007;2;17;2;693;-330;-1930;-5293;-3164;-1274;4710
353017;2;17;2;693;-319;-2073;-6044;-4741;-1949;4752
353027;2;17;2;693;-752;-2060;-6079;-6906;-2477;4824
353037;2;17;2;693;-1434;-1920;-5710;-8469;-2897;5290
353047;2;17;2;693;-2189;-1821;-5337;-8964;-2957;6494
353057;2;17;2;693;-2418;-2090;-5494;-8876;-2358;7749
353067;2;17;2;693;-2382;-2230;-5198;-8963;-1399;8381
353077;2;17;2;693;-1478;-2707;-4824;-8615;-553;8342
353087;2;17;2;693;-408;-2845;-4209;-8917;-43;7290
353097;2;17;2;693;38;-2538;-3244;-7588;-149;6809
353107;2;17;2;693;152;-1988;-3183;-5764;-996;7219
353117;2;17;2;693;-23;-1581;-3551;-5750;-1614;8470
353127;2;17;2;693;56;-1276;-3621;-7794;-1536;8896
353137;2;17;2;693;-304;-59;-3292;-11205;-2062;9043
353147;2;17;2;693;-456;897;-2630;-14421;-2873;8841
353157;2;17;2;693;-441;1294;-1749;-15958;-3662;7759
353167;2;17;2;693;-1202;1444;-514;-15930;-4301;7017
353177;2;17;2;693;-1111;718;184;-13186;-5246;6970
353187;2;17;2;693;-972;390;-612;-8224;-5673;6705
353197;2;17;2;693;-580;269;-2396;-3600;-4631;5586
353207;2;17;2;693;-1091;1348;-3436;-2708;-3212;4143
353217;2;17;2;693;-1339;1730;-3160;-2788;-3036;4088
353227;2;17;2;693;-1050;1444;-2879;-1712;-3688;4362
353237;2;17;2;693;-1202;1440;-2665;-1264;-4064;4460
353247;2;17;2;693;-1521;1494;-2183;-1461;-3876;4643
353257;2;17;2;693;-1530;1506;-1866;-2043;-3280;4773
353267;2;17;2;693;-1426;1579;-1630;-2642;-2426;4357
353277;2;17;2;693;-1165;1971;-2431;-3196;-1126;2651
353287;2;17;2;693;-1107;2856;-2858;-2554;724;978
353297;2;17;2;693;-881;3064;-2882;-574;1060;750
353307;2;17;2;693;-774;2996;-3770;1183;236;749
353317;2;17;2;693;-593;2864;-4773;908;-479;931
353327;2;17;2;693;-646;2391;-5033;-971;-529;876
353337;2;17;2;693;-1109;2124;-4338;-2247;-252;795
353347;2;17;2;693;-1610;2262;-3750;-2344;157;1289
353357;2;17;2;693;-1557;1874;-3093;-2359;853;2211
353367;2;17;2;693;-815;917;-2910;-2487;1988;2204
353377;2;17;2;693;-436;867;-2663;-2837;3538;1258
353387;2;17;2;693;-608;1221;-1819;-2747;4533;790
353397;2;17;2;693;-59;1489;-2225;-2243;4476;-152
353407;2;17;2;693;-29;2249;-2703;-2013;4154;-74
353417;2;17;2;693;172;2245;-3375;-1552;4048;28
353427;2;17;2;694;54;2016;-3764;-720;4570;-95
353437;2;17;2;694;-63;1546;-3764;-54;5286;-231
353447;2;17;2;694;-480;1419;-3298;543;5439;-461
353457;2;17;2;694;-1093;1689;-3154;1172;4233;-246
353467;2;17;2;694;-1477;1948;-3545;1387;2974;229
353477;2;17;2;694;-1564;2312;-4129;1154;1939;950
353487;2;17;2;694;-1267;2328;-4496;522;1739;1420
353497;2;17;2;694;-657;1864;-4391;-275;2090;1653
353507;2;17;2;694;-103;1424;-4019;-884;2160;1468
353517;2;17;2;694;-58;1429;-3753;-1340;1801;1565
353527;2;17;2;694;-239;1572;-3392;-1267;966;2607
353537;2;17;2;694;-156;1363;-3487;-449;87;3859
353547;2;17;2;694;10;1147;-3940;-761;-1;4788
353557;2;17;2;694;-39;1453;-3765;-3235;650;5057
353567;2;17;2;694;-659;2210;-2670;-6123;951;5359
353577;2;17;2;694;-1106;2709;-1729;-7154;277;5775
353587;2;17;2;694;-1144;2953;-1654;-5867;-601;5646
353597;2;17;2;694;-774;3110;-2222;-2638;-1083;4927
353607;2;17;2;694;-511;3274;-2966;1411;-1969;4367
353617;2;17;2;694;-328;2802;-3827;4632;-2906;4436
353627;2;17;2;694;-235;2559;-4775;5032;-3070;4019
353637;2;17;2;694;-646;3009;-4845;2817;-2887;3403
353647;2;17;2;694;-1457;3410;-4068;103;-3295;3368
353657;2;17;2;694;-1991;3428;-3296;-810;-4402;3369
353667;2;17;2;694;-2478;3344;-2777;776;-5617;3580
353677;2;17;2;694;-2699;2715;-2953;3477;-6548;4102
353687;2;17;2;694;-2919;2204;-3228;5966;-6762;4973
353697;2;17;2;694;-2890;1686;-3600;7556;-6163;6509
353707;2;17;2;694;-2525;1273;-4091;7342;-5135;8251
353717;2;17;2;694;-1925;1036;-5064;5112;-2942;9584
353727;2;17;2;694;-1434;1539;-5790;726;412;9910
353737;2;17;2;694;-903;2056;-5476;-4279;3864;9882
353747;2;17;2;694;-163;2457;-4770;-7781;6660;9113
353757;2;17;2;694;115;3185;-3832;-9092;8662;7937
353767;2;17;2;694;392;3640;-2527;-8078;8946;6904
353777;2;17;2;694;389;3971;-1537;-4964;7340;6061
353787;2;17;2;694;65;3999;-1223;-792;4737;5613
353797;2;17;2;694;-728;3776;-1258;3344;1834;5799
353807;2;17;2;694;-1261;2861;-1925;6791;-312;5983
353817;2;17;2;694;-1523;2371;-3415;8321;-603;5796
353827;2;17;2;694;-1576;1824;-4327;7705;772;5811
353837;2;17;2;694;-1572;1376;-4716;5450;2839;5796
353847;2;17;2;694;-1611;1333;-4801;2385;4748;5853
353857;2;17;2;694;-1679;1687;-4471;-621;5945;6202
353867;2;17;2;694;-1271;1951;-4183;-2823;6418;6523
353877;2;17;2;694;-693;2275;-3915;-3825;6711;6179
353887;2;17;2;694;-138;2692;-3523;-3551;6570;5507
353897;2;17;2;694;475;2780;-3257;-1927;5583;4934
353907;2;17;2;694;891;2683;-2905;151;3880;4228
353917;2;17;2;694;1092;2382;-2537;2144;1031;3582
353927;2;17;2;695;751;2346;-2970;3740;-1998;3038
353937;2;17;2;695;-25;2398;-4453;4672;-3599;2742
353947;2;17;2;695;-749;2454;-5701;4554;-2532;2089
353957;2;17;2;695;-929;2551;-6498;3025;-93;1629
353967;2;17;2;695;-574;2499;-6657;-628;2760;1152
353977;2;17;2;695;80;2527;-6052;-4911;4751;453
353987;2;17;2;695;663;2963;-5151;-8254;5327;-381
353997;2;17;2;695;860;3563;-4313;-9467;4861;-886
354007;2;17;2;695;865;4013;-3611;-8774;3947;-1138
354017;2;17;2;695;778;4159;-3114;-6959;2644;-1225
354027;2;17;2;695;778;4112;-2750;-4429;960;-1180
354037;2;17;2;695;775;4167;-3009;-1988;-1050;-836
354047;2;17;2;695;754;4119;-3765;-958;-2408;-632
354057;2;17;2;695;1047;3895;-4166;-600;-3036;-585
354067;2;17;2;695;1278;3586;-4374;268;-3674;-776
354077;2;17;2;695;1124;3263;-4853;1397;-3409;-1285
354087;2;17;2;695;950;2793;-4875;2222;-2068;-1975
354097;2;17;2;695;822;2321;-4244;2367;-922;-2766
354107;2;17;2;695;430;2113;-3477;2001;-502;-3497
354117;2;17;2;695;-82;2298;-2909;1706;-603;-3592
354127;2;17;2;695;-528;2518;-2309;1457;-880;-2824
354137;2;17;2;695;-1006;2904;-1839;1286;-2161;-1229
354147;2;17;2;695;-1387;3427;-2270;1991;-4331;1265
354157;2;17;2;695;-1129;3214;-3229;3613;-5862;3558
354167;2;17;2;695;-514;2627;-4925;5757;-5693;4740
354177;2;17;2;695;65;2332;-6151;6332;-3883;4559
354187;2;17;2;695;520;2102;-6729;4875;-1865;4269
354197;2;17;2;695;917;1801;-6594;1827;-540;3986
354207;2;17;2;695;957;1914;-6170;-1879;321;3671
354217;2;17;2;695;785;2134;-5343;-5141;1127;3627
354227;2;17;2;695;443;2457;-4152;-7307;1808;3786
354237;2;17;2;695;-112;2687;-3270;-8329;2612;4298
354247;2;17;2;695;-291;2557;-2596;-9274;4076;4160
354257;2;17;2;695;-258;3111;-1756;-8703;3706;4023
354267;2;17;2;695;379;3567;-1997;-5462;2190;4929
354277;2;17;2;695;1069;3498;-2613;-1120;916;5613
354287;2;17;2;695;1307;3158;-3106;3109;-202;5866
354297;2;17;2;695;1477;2734;-3645;5921;-1131;5976
354307;2;17;2;695;1484;2352;-3957;6526;-1867;6259
354317;2;17;2;695;1253;2021;-4312;5515;-2141;6542
354327;2;17;2;695;1026;1817;-4318;3806;-1550;6738
354337;2;17;2;695;772;1747;-3891;1977;-920;6834
354347;2;17;2;695;538;1657;-3450;615;-618;6979
354357;2;17;2;695;471;1603;-3227;105;-318;6829
354367;2;17;2;695;512;1572;-3080;620;-228;6404
354377;2;17;2;695;729;1695;-2927;2005;-1100;6489
354387;2;17;2;695;943;1311;-3323;3420;-2850;7077
354397;2;17;2;695;788;846;-4043;4041;-4042;7144
354407;2;17;2;695;307;607;-4640;3063;-4058;6739
354417;2;17;2;695;-81;810;-4806;700;-3125;6395
354427;2;17;2;696;-258;885;-4605;-1709;-1931;6381
354437;2;17;2;696;-165;1003;-4363;-3592;-478;6214
354447;2;17;2;696;-152;1124;-4062;-4735;1143;6023
354457;2;17;2;696;-142;1053;-3722;-5147;2920;5315
354467;2;17;2;696;-129;973;-3368;-4522;4555;4243
354477;2;17;2;696;-112;969;-3094;-2816;5878;3161
354487;2;17;2;696;91;941;-3005;-1117;6142;2414
354497;2;17;2;696;353;914;-3126;-195;5509;2165
354507;2;17;2;696;358;916;-3131;-375;4209;2551
354517;2;17;2;696;374;875;-3304;-1497;2437;3497
354527;2;17;2;696;384;817;-3626;-3177;1046;4372
354537;2;17;2;696;281;782;-3741;-4579;392;5001
354547;2;17;2;696;303;854;-3740;-5467;221;5462
354557;2;17;2;696;389;999;-3681;-6675;417;5386
354567;2;17;2;696;424;1095;-3234;-7482;655;5031
354577;2;17;2;696;528;1175;-2886;-6675;710;4448
354587;2;17;2;696;412;1361;-2733;-4014;723;3867
354597;2;17;2;696;286;1347;-2601;-786;493;3753
354607;2;17;2;696;337;1109;-2732;1621;-137;4041
354617;2;17;2;696;515;775;-3162;2439;-840;4540
354627;2;17;2;696;735;512;-3641;1700;-1138;4875
354637;2;17;2;696;898;506;-3701;-66;-1211;5118
354647;2;17;2;696;972;586;-3498;-1706;-1378;5384
354657;2;17;2;696;1152;692;-3383;-2699;-1694;5630
354667;2;17;2;696;1249;730;-3345;-3416;-1932;5724
354677;2;17;2;696;1292;718;-3341;-3886;-1914;5503
354687;2;17;2;696;1238;663;-3233;-4173;-1536;5048
354697;2;17;2;696;1315;583;-3060;-4346;-1271;4454
354707;2;17;2;696;1513;604;-2940;-4619;-1157;3918
354717;2;17;2;696;1682;679;-2873;-5045;-1247;3556
354727;2;17;2;696;1834;746;-2771;-5565;-1613;3441
354737;2;17;2;696;2140;926;-2633;-6009;-2522;3582
354747;2;17;2;696;2472;1027;-2705;-5721;-4033;3962
354757;2;17;2;696;2665;828;-3046;-5185;-5587;4343
354767;2;17;2;696;2911;421;-3710;-4898;-7064;4305
354777;2;17;2;696;3202;-87;-4581;-5095;-7715;3447
354787;2;17;2;696;3349;-333;-5066;-6241;-7187;2312
354797;2;17;2;696;3148;-399;-4844;-8995;-6373;1693
354807;2;17;2;696;2751;3;-4224;-13588;-5801;1245
354817;2;17;2;696;2289;812;-3171;-18009;-5310;834
354827;2;17;2;696;1971;1689;-1952;-20033;-5260;395
354837;2;17;2;696;1793;2764;-1228;-19055;-5688;235
354847;2;17;2;696;1532;3927;-936;-15805;-6351;844
354857;2;17;2;696;1574;4480;-1062;-11501;-7270;2011
354867;2;17;2;696;1816;4407;-1495;-6373;-8368;2662
354877;2;17;2;696;2131;4047;-2246;-769;-9162;2790
354887;2;17;2;696;2288;3624;-2896;4046;-10102;3050
354897;2;17;2;696;2413;2872;-3745;6743;-11344;3681
354907;2;17;2;696;2445;1936;-4466;7134;-12378;4201
354917;2;17;2;696;2385;1217;-4786;5734;-13108;4572
354927;2;17;2;697;2159;695;-4887;2435;-13854;4985
354937;2;17;2;697;1898;590;-4755;-766;-14037;5341
354947;2;17;2;697;1582;656;-4356;-3977;-13662;5823
354957;2;17;2;697;1279;793;-3813;-6497;-12942;6269
354967;2;17;2;697;1122;868;-3260;-8021;-11857;6500
354977;2;17;2;697;1100;922;-2849;-8435;-10478;6312
354987;2;17;2;697;1209;926;-2679;-7820;-9394;5999
354997;2;17;2;697;1301;1081;-2695;-7116;-8507;5851
355007;2;17;2;697;1338;1280;-2648;-7136;-8116;6232
355017;2;17;2;697;1364;1321;-2418;-7766;-8356;7036
355027;2;17;2;697;1398;1370;-2207;-8522;-8996;7772
355037;2;17;2;697;1450;1520;-1952;-8885;-9737;8339
355047;2;17;2;697;1385;1647;-1775;-8697;-10480;8736
355057;2;17;2;697;1140;1695;-1632;-8094;-10993;8911
355067;2;17;2;697;866;1750;-1482;-7204;-11329;9044
355077;2;17;2;697;710;1703;-1431;-6229;-11589;9141
355087;2;17;2;697;636;1608;-1577;-5488;-11475;8952
355097;2;17;2;697;594;1490;-1680;-5011;-10899;8366
355107;2;17;2;697;596;1612;-1789;-4783;-10091;7652
355117;2;17;2;697;648;1734;-1778;-4745;-9257;7155
355127;2;17;2;697;694;1640;-1526;-4596;-8704;6873
355137;2;17;2;697;683;1582;-1198;-4094;-8766;6901
355147;2;17;2;697;397;1703;-1071;-3431;-9628;7584
355157;2;17;2;697;508;1692;-1468;-3174;-10538;8534
355167;2;17;2;697;430;1890;-1916;-3648;-10805;9303
355177;2;17;2;697;212;2475;-2370;-4484;-10418;10311
355187;2;17;2;697;355;3000;-2935;-5895;-9276;11267
355197;2;17;2;697;965;3254;-3409;-7636;-7340;10852
355207;2;17;2;697;1548;3449;-3349;-8787;-4850;9051
355217;2;17;2;697;2170;4015;-3036;-8826;-3371;7070
355227;2;17;2;697;2783;4447;-2967;-7908;-3286;5789
355237;2;17;2;697;3285;4561;-2809;-6646;-4660;4947
355247;2;17;2;697;3366;4503;-2733;-5552;-7328;4828
355257;2;17;2;697;3081;4204;-2759;-4957;-10335;5265
355267;2;17;2;697;2530;4119;-3005;-5152;-12857;6023
355277;2;17;2;697;1710;4419;-3389;-6364;-14299;6976
355287;2;17;2;697;1166;4596;-3833;-7941;-14058;7546
355297;2;17;2;697;965;4516;-3690;-8568;-12345;7181
355307;2;17;2;697;1117;4551;-3633;-7715;-10115;6273
355317;2;17;2;697;1472;4372;-3682;-6115;-7581;4941
355327;2;17;2;697;1948;3748;-4298;-5304;-4048;3144
355337;2;17;2;697;2341;3129;-3626;-6857;1487;18
355347;2;17;2;697;2325;2992;-1898;-7381;3936;-1863
355357;2;17;2;697;2499;2744;-1011;-5812;2489;-1653
355367;2;17;2;697;2621;2570;-860;-4267;-303;-696
355377;2;17;2;697;2308;2619;-771;-3809;-3137;284
355387;2;17;2;697;1793;2933;-585;-3777;-5420;1242
355397;2;17;2;697;1263;3407;-306;-3263;-7432;2385
355407;2;17;2;697;791;3706;-485;-1838;-8841;3369
355417;2;17;2;697;630;3993;-972;424;-9066;3510
355427;2;17;2;698;527;4349;-1863;3144;-8221;3219
355437;2;17;2;698;680;4308;-3233;5508;-5834;2365
355447;2;17;2;698;876;4041;-4094;6826;-2237;695
355457;2;17;2;698;1295;3561;-4419;7076;1163;-1012
355467;2;17;2;698;1742;3006;-4353;6644;3499;-2514
355477;2;17;2;698;2006;2786;-4037;5422;4392;-3286
355487;2;17;2;698;2082;2655;-3613;3393;3890;-3272
355497;2;17;2;698;2096;2422;-3186;1302;2695;-2827
355507;2;17;2;698;2019;2223;-2858;-396;2073;-2566
355517;2;17;2;698;1842;2175;-2454;-1822;2730;-2757
355527;2;17;2;698;1654;2379;-1645;-2934;4360;-3256
355537;2;17;2;698;1515;2655;-530;-3091;5393;-3546
355547;2;17;2;698;1573;2777;179;-1873;5492;-3515
355557;2;17;2;698;1565;2933;420;590;5093;-3636
355567;2;17;2;698;1458;3157;390;3483;4378;-3547
355577;2;17;2;698;1338;3172;68;6163;3399;-3209
355587;2;17;2;698;1436;2899;-592;8405;2570;-3136
355597;2;17;2;698;1649;2644;-1585;10151;2380;-3715
355607;2;17;2;698;1624;2486;-2404;11249;2689;-4587
355617;2;17;2;698;1415;2255;-2924;11722;3074;-5204
355627;2;17;2;698;1218;2002;-3246;11215;3042;-5305
355637;2;17;2;698;1127;1783;-3585;9741;2701;-5246
355647;2;17;2;698;908;1735;-3912;7972;2717;-5374
355657;2;17;2;698;534;1769;-3813;6711;3233;-5365
355667;2;17;2;698;257;1756;-3649;5978;3823;-5121
355677;2;17;2;698;235;1814;-3619;5450;4502;-4857
355687;2;17;2;698;521;1924;-3742;5162;5146;-4861
355697;2;17;2;698;664;2214;-3991;4995;5872;-5137
355707;2;17;2;698;610;2604;-4149;4819;6782;-5380
355717;2;17;2;698;619;3048;-4374;4508;7744;-5628
355727;2;17;2;698;768;3420;-4423;4382;8733;-6073
355737;2;17;2;698;1070;3619;-4240;4852;9249;-6702
355747;2;17;2;698;1331;3638;-4084;6046;9161;-7443
355757;2;17;2;698;1458;3343;-3911;7663;8363;-8009
355767;2;17;2;698;1386;2915;-3999;9050;7024;-8391
355777;2;17;2;698;1131;2594;-4162;9282;5475;-8534
355787;2;17;2;698;800;2340;-4315;8343;4057;-8322
355797;2;17;2;698;559;2141;-4345;7018;3048;-7992
355807;2;17;2;698;353;2066;-4339;5660;2606;-7845
355817;2;17;2;698;71;2240;-4138;4468;2593;-7771
355827;2;17;2;698;-73;2355;-3815;3732;2671;-7541
355837;2;17;2;698;-220;2469;-3625;3575;2731;-7342
355847;2;17;2;698;-356;2594;-3449;3996;2800;-7079
355857;2;17;2;698;-517;2669;-3439;4561;2738;-6527
355867;2;17;2;698;-631;2722;-3538;4678;2693;-5784
355877;2;17;2;698;-754;2702;-3553;4302;2693;-4886
355887;2;17;2;698;-781;2702;-3515;3713;2789;-3931
355897;2;17;2;698;-730;2721;-3431;3136;2922;-2987
355907;2;17;2;698;-589;2649;-3378;2775;3119;-2172
355917;2;17;2;698;-367;2567;-3284;2603;3247;-1510
355927;2;17;2;699;-167;2472;-3250;2381;3285;-974
355937;2;17;2;699;7;2363;-3187;2134;3207;-468
355947;2;17;2;699;299;2204;-3231;1973;3121;-132
355957;2;17;2;699;632;2118;-3381;1836;3039;-65
355967;2;17;2;699;873;2035;-3538;1521;3048;-154
355977;2;17;2;699;1113;1998;-3638;764;3086;-530
355987;2;17;2;699;1201;2071;-3483;-183;3085;-875
355997;2;17;2;699;1234;2223;-3190;-1083;2869;-946
356007;2;17;2;699;1249;2405;-2904;-1822;2519;-915
356017;2;17;2;699;1347;2530;-2614;-2054;2150;-876
356027;2;17;2;699;1409;2632;-2402;-1697;1823;-740
356037;2;17;2;699;1468;2685;-2307;-978;1460;-536
356047;2;17;2;699;1516;2665;-2267;-289;959;-241
356057;2;17;2;699;1584;2576;-2408;180;302;205
356067;2;17;2;699;1594;2418;-2626;325;-314;591
356077;2;17;2;699;1534;2237;-2785;428;-849;876
356087;2;17;2;699;1492;2044;-3007;671;-1302;1174
356097;2;17;2;699;1633;1780;-3404;896;-1527;1388
356107;2;17;2;699;1757;1781;-3826;591;-1231;964
356117;2;17;2;699;1649;2007;-3769;-126;-818;309
356127;2;17;2;699;1497;2167;-3384;-437;-882;-37
356137;2;17;2;699;1343;2280;-3126;93;-1404;2
356147;2;17;2;699;1162;2327;-3135;1044;-2079;211
356157;2;17;2;699;968;2224;-3312;1928;-2707;441
356167;2;17;2;699;872;2033;-3484;2658;-3241;649
356177;2;17;2;699;903;1890;-3532;3424;-3931;1002
356187;2;17;2;699;923;1645;-3958;4453;-4236;1253
356197;2;17;2;699;779;1381;-4316;5383;-3501;1131
356207;2;17;2;699;670;1221;-4490;5590;-2315;906
356217;2;17;2;699;685;1121;-4530;4705;-1071;902
356227;2;17;2;699;817;1083;-4505;2813;-123;998
356237;2;17;2;699;970;1177;-4322;227;447;1153
356247;2;17;2;699;1046;1368;-3908;-2203;547;1313
356257;2;17;2;699;1185;1567;-3455;-3486;362;1458
356267;2;17;2;699;1341;1716;-3118;-3255;92;1366
356277;2;17;2;699;1387;1859;-2931;-1808;-300;1094
356287;2;17;2;699;1405;1878;-3072;106;-749;734
356297;2;17;2;699;1323;1836;-3425;1597;-951;344
356307;2;17;2;699;1195;1723;-3748;2195;-954;72
356317;2;17;2;699;1054;1647;-4081;1961;-817;-145
356327;2;17;2;699;901;1642;-4384;1187;-379;-229
356337;2;17;2;699;766;1670;-4336;261;166;-189
356347;2;17;2;699;711;1756;-4205;-492;528;-31
356357;2;17;2;699;713;1880;-3995;-1129;782;285
356367;2;17;2;699;821;1947;-3706;-1493;767;622
356377;2;17;2;699;960;2002;-3498;-1552;539;881
356387;2;17;2;699;1072;2084;-3342;-1330;178;1123
356397;2;17;2;699;1176;2109;-3406;-1090;-149;1213
356407;2;17;2;699;1187;2174;-3478;-876;-133;1019
356417;2;17;2;699;1198;2175;-3439;-652;2;718
