timestamp;subject_id;activity;label;seq;ax;ay;az;gx;gy;gz
421427;2;18;2;830;1275;3871;250;328;49;565
421437;2;18;2;830;1261;3858;254;605;194;517
421447;2;18;2;830;1326;3850;239;795;364;457
421457;2;18;2;830;1371;3886;211;836;465;392
421467;2;18;2;830;1369;3919;239;841;515;361
421477;2;18;2;830;1346;3946;240;811;501;337
421487;2;18;2;830;1317;3939;217;730;490;334
421497;2;18;2;830;1246;3942;153;675;536;363
421507;2;18;2;830;1206;3934;171;672;622;377
421517;2;18;2;830;1184;3950;211;660;611;441
421527;2;18;2;830;1170;3953;184;621;561;544
421537;2;18;2;830;1206;3963;170;558;550;602
421547;2;18;2;830;1235;3973;146;553;555;646
421557;2;18;2;830;1287;3981;171;605;630;618
421567;2;18;2;830;1273;3996;170;607;659;571
421577;2;18;2;830;1302;4003;165;523;642;543
421587;2;18;2;830;1301;4005;109;400;608;520
421597;2;18;2;830;1266;4006;75;273;606;471
421607;2;18;2;830;1277;4012;116;327;655;399
421617;2;18;2;830;1251;4019;132;418;728;309
421627;2;18;2;830;1229;4045;306;433;658;285
421637;2;18;2;830;1193;4069;387;545;514;316
421647;2;18;2;830;1196;4037;281;517;533;299
421657;2;18;2;830;1263;3973;231;293;598;256
421667;2;18;2;830;1315;4000;263;125;555;223
421677;2;18;2;830;1318;4030;275;191;466;219
421687;2;18;2;830;1329;4018;189;412;522;194
421697;2;18;2;830;1313;4006;153;558;600;153
421707;2;18;2;830;1317;4027;139;352;451;175
421717;2;18;2;830;1292;4018;134;54;228;255
421727;2;18;2;830;1257;3998;179;-61;109;303
421737;2;18;2;830;1232;3965;227;-56;49;340
421747;2;18;2;830;1251;3905;195;-38;86;343
421757;2;18;2;830;1296;3878;264;22;151;326
421767;2;18;2;830;1357;3899;356;57;102;354
421777;2;18;2;830;1418;3931;395;-22;26;377
421787;2;18;2;830;1458;3900;414;-125;-14;368
421797;2;18;2;830;1495;3858;308;-134;133;280
421807;2;18;2;830;1489;3818;277;-35;440;146
421817;2;18;2;830;1485;3873;418;-4;692;-15
421827;2;18;2;830;1457;3930;539;39;703;-36
421837;2;18;2;830;1467;3904;545;106;595;33
421847;2;18;2;830;1421;3897;474;282;606;-18
421857;2;18;2;830;1374;3890;418;549;744;-75
421867;2;18;2;830;1364;3902;394;733;800;-107
421877;2;18;2;830;1292;3915;346;634;721;-79
421887;2;18;2;830;1250;3920;337;452;577;-34
421897;2;18;2;830;1227;3948;356;441;426;7
421907;2;18;2;830;1226;3966;414;485;282;97
421917;2;18;2;830;1269;3977;401;547;149;73
421927;2;18;2;831;1326;3960;376;636;132;5
421937;2;18;2;831;1352;3954;454;719;158;-89
421947;2;18;2;831;1349;3954;490;656;85;-158
421957;2;18;2;831;1334;3943;493;561;-92;-203
421967;2;18;2;831;1310;3914;441;512;-182;-258
421977;2;18;2;831;1307;3876;408;561;-188;-328
421987;2;18;2;831;1296;3875;415;508;-283;-336
421997;2;18;2;831;1276;3866;441;314;-525;-285
422007;2;18;2;831;1255;3872;490;120;-779;-227
422017;2;18;2;831;1262;3865;456;29;-897;-211
422027;2;18;2;831;1323;3885;460;107;-840;-281
422037;2;18;2;831;1350;3924;487;224;-836;-341
422047;2;18;2;831;1376;3947;516;253;-885;-405
422057;2;18;2;831;1402;3978;495;248;-942;-471
422067;2;18;2;831;1362;3980;503;288;-1020;-526
422077;2;18;2;831;1314;3948;461;353;-1062;-575
422087;2;18;2;831;1254;3941;451;344;-1091;-632
422097;2;18;2;831;1218;3957;460;223;-1231;-642
422107;2;18;2;831;1170;3968;453;121;-1457;-562
422117;2;18;2;831;1262;3943;352;104;-1594;-573
422127;2;18;2;831;1281;3931;233;23;-1576;-619
422137;2;18;2;831;1305;3914;255;-104;-1584;-649
422147;2;18;2;831;1326;3975;409;-152;-1704;-623
422157;2;18;2;831;1366;4047;528;4;-1815;-557
422167;2;18;2;831;1348;4054;533;311;-1840;-517
422177;2;18;2;831;1322;4046;417;362;-1798;-495
422187;2;18;2;831;1304;4040;283;79;-1734;-509
422197;2;18;2;831;1269;4186;290;-198;-1665;-511
422207;2;18;2;831;1309;4307;341;-123;-1563;-577
422217;2;18;2;831;1204;4424;367;191;-1506;-638
422227;2;18;2;831;1137;4368;89;266;-1625;-565
422237;2;18;2;831;1001;4381;-187;-170;-1838;-467
422247;2;18;2;831;978;4314;-261;-576;-2105;-243
422257;2;18;2;831;1001;4288;-113;-683;-2340;-94
422267;2;18;2;831;1040;4241;24;-653;-2588;37
422277;2;18;2;831;1294;4058;88;-684;-2814;107
422287;2;18;2;831;1394;3938;89;-870;-2841;48
422297;2;18;2;831;1500;3822;232;-986;-2853;-32
422307;2;18;2;831;1613;3753;226;-991;-2823;-170
422317;2;18;2;831;1647;3741;170;-830;-2551;-356
422327;2;18;2;831;1665;3726;85;-556;-2145;-552
422337;2;18;2;831;1643;3829;10;-382;-1791;-692
422347;2;18;2;831;1520;3898;-66;-387;-1693;-666
422357;2;18;2;831;1392;3954;-195;-404;-1632;-627
422367;2;18;2;831;1240;4038;-261;-328;-1552;-521
422377;2;18;2;831;1108;4100;-355;-176;-1461;-372
422387;2;18;2;831;1036;4127;-416;-7;-1251;-232
422397;2;18;2;831;1036;4162;-323;138;-1035;-108
422407;2;18;2;831;1083;4223;-232;240;-901;21
422417;2;18;2;831;1177;4249;-144;339;-911;136
422427;2;18;2;832;1280;4231;-162;422;-1025;240
422437;2;18;2;832;1304;4223;-267;416;-1122;272
422447;2;18;2;832;1290;4176;-409;357;-1131;222
422457;2;18;2;832;1213;4153;-631;287;-954;141
422467;2;18;2;832;1059;4100;-821;145;-690;74
422477;2;18;2;832;866;4141;-944;-107;-380;90
422487;2;18;2;832;687;4161;-895;-208;-46;159
422497;2;18;2;832;521;4148;-762;-238;116;363
422507;2;18;2;832;434;4107;-588;-352;46;663
422517;2;18;2;832;421;4017;-438;-350;-98;897
422527;2;18;2;832;488;3915;-325;-5;-168;989
422537;2;18;2;832;586;3803;-312;465;-168;986
422547;2;18;2;832;792;3710;-274;699;-158;848
422557;2;18;2;832;974;3674;-239;763;-104;618
422567;2;18;2;832;1126;3674;-330;593;92;157
422577;2;18;2;832;1237;3786;-252;580;474;-299
422587;2;18;2;832;1227;3857;-284;822;896;-753
422597;2;18;2;832;1185;3884;-294;973;1339;-1138
422607;2;18;2;832;1141;3939;-314;1022;1824;-1507
422617;2;18;2;832;1108;4011;-291;947;2325;-1780
422627;2;18;2;832;1024;4104;-299;755;2635;-1868
422637;2;18;2;832;862;4178;-355;502;2791;-1771
422647;2;18;2;832;752;4258;-413;379;2900;-1509
422657;2;18;2;832;659;4357;-418;284;2993;-1216
422667;2;18;2;832;597;4371;-506;309;3093;-899
422677;2;18;2;832;569;4385;-530;526;3313;-592
422687;2;18;2;832;544;4295;-530;703;3543;-312
422697;2;18;2;832;546;4164;-533;641;3783;-139
422707;2;18;2;832;554;4112;-439;629;4074;-14
422717;2;18;2;832;609;4069;-255;873;4333;108
422727;2;18;2;832;649;4055;-14;1355;4469;214
422737;2;18;2;832;689;3997;-2;1810;4502;362
422747;2;18;2;832;715;3961;-102;1993;4676;392
422757;2;18;2;832;812;3850;-230;2068;4878;361
422767;2;18;2;832;833;3915;-300;2041;5011;299
422777;2;18;2;832;853;3916;-408;2002;4971;288
422787;2;18;2;832;866;3968;-497;1862;4950;181
422797;2;18;2;832;850;3993;-518;1716;4929;56
422807;2;18;2;832;861;4026;-567;1625;4951;-96
422817;2;18;2;832;895;4096;-561;1532;4956;-277
422827;2;18;2;832;901;4127;-601;1300;4880;-417
422837;2;18;2;832;859;4129;-563;999;4782;-503
422847;2;18;2;832;775;4090;-617;823;4703;-411
422857;2;18;2;832;696;4118;-521;644;4750;-393
422867;2;18;2;832;682;4106;-604;585;4888;-184
422877;2;18;2;832;767;4079;-650;689;5274;-97
422887;2;18;2;832;885;4139;-610;910;5663;-84
422897;2;18;2;832;1033;4168;-603;1183;6025;-134
422907;2;18;2;832;1077;4125;-538;1428;6379;-224
422917;2;18;2;832;1042;4055;-414;1596;6599;-249
422927;2;18;2;833;963;3960;-307;1744;6710;-204
422937;2;18;2;833;897;3815;-322;1828;6847;-123
422947;2;18;2;833;860;3676;-317;1848;7091;-19
422957;2;18;2;833;916;3550;-283;1863;7446;25
422967;2;18;2;833;1025;3518;-210;1818;7806;84
422977;2;18;2;833;1198;3487;-179;1788;8026;131
422987;2;18;2;833;1452;3473;-251;1802;8257;15
422997;2;18;2;833;1676;3498;-358;1952;8599;-271
423007;2;18;2;833;1828;3718;-402;2037;9135;-788
423017;2;18;2;833;1858;3982;-205;2177;9593;-1301
423027;2;18;2;833;1680;4236;-21;2375;9480;-1454
423037;2;18;2;833;1249;4544;-18;2806;8674;-1106
423047;2;18;2;833;940;4795;-285;3527;7743;-408
423057;2;18;2;833;701;4788;-742;4681;7264;135
423067;2;18;2;833;687;4581;-1232;5831;7217;494
423077;2;18;2;833;784;4319;-1696;6270;7248;676
423087;2;18;2;833;1007;3921;-2057;5651;7395;616
423097;2;18;2;833;1170;3579;-2180;4346;7743;380
423107;2;18;2;833;1256;3400;-2057;2670;8223;-53
423117;2;18;2;833;1224;3407;-1744;1133;8763;-432
423127;2;18;2;833;1192;3460;-1143;206;9185;-611
423137;2;18;2;833;1207;3609;-537;-26;9320;-639
423147;2;18;2;833;1304;3792;5;332;9200;-523
423157;2;18;2;833;1484;3973;310;1230;8850;-435
423167;2;18;2;833;1614;4092;389;2516;8450;-437
423177;2;18;2;833;1730;4185;309;3887;8058;-465
423187;2;18;2;833;1782;4101;-19;5059;7619;-479
423197;2;18;2;833;1735;4051;-460;5698;7222;-563
423207;2;18;2;833;1689;3908;-950;5802;7088;-682
423217;2;18;2;833;1614;3782;-1383;5467;7319;-881
423227;2;18;2;833;1526;3708;-1594;4637;7551;-980
423237;2;18;2;833;1491;3709;-1632;3210;7672;-1034
423247;2;18;2;833;1406;3837;-1415;1681;7645;-1036
423257;2;18;2;833;1310;3996;-1076;654;7434;-906
423267;2;18;2;833;1235;4116;-757;408;7173;-695
423277;2;18;2;833;1176;4136;-556;795;6905;-506
423287;2;18;2;833;1160;4087;-547;1335;6601;-312
423297;2;18;2;833;1170;3965;-731;1687;6297;-176
423307;2;18;2;833;1222;3823;-1028;1695;6222;-161
423317;2;18;2;833;1260;3667;-1238;1278;6314;-241
423327;2;18;2;833;1291;3524;-1320;356;6482;-360
423337;2;18;2;833;1244;3455;-1336;-898;6796;-573
423347;2;18;2;833;1258;3476;-982;-1941;7307;-769
423357;2;18;2;833;1229;3611;-627;-2704;7776;-992
423367;2;18;2;833;1246;3682;-158;-3125;7984;-1028
423377;2;18;2;833;1292;3814;77;-3079;8108;-1077
423387;2;18;2;833;1368;3879;361;-2802;8021;-1007
423397;2;18;2;833;1440;4002;529;-2398;7647;-892
423407;2;18;2;833;1496;4024;676;-1844;7196;-751
423417;2;18;2;833;1505;4088;690;-1158;6668;-612
423427;2;18;2;834;1514;4086;608;-408;6114;-443
423437;2;18;2;834;1531;4050;433;56;5760;-398
423447;2;18;2;834;1560;3988;45;437;5674;-523
423457;2;18;2;834;1610;3924;-337;706;5902;-766
423467;2;18;2;834;1599;3827;-695;539;6192;-1115
423477;2;18;2;834;1605;3771;-888;-108;6631;-1539
423487;2;18;2;834;1548;3738;-694;-975;6801;-1819
423497;2;18;2;834;1462;3854;-360;-1732;6678;-1904
423507;2;18;2;834;1356;3979;203;-1935;6271;-1778
423517;2;18;2;834;1335;4111;750;-1526;5612;-1583
423527;2;18;2;834;1368;4192;1020;-501;4775;-1210
423537;2;18;2;834;1420;4103;801;221;3864;-767
423547;2;18;2;834;1548;3948;410;424;3276;-408
423557;2;18;2;834;1665;3845;32;655;3234;-238
423567;2;18;2;834;1767;3806;-249;822;3462;-285
423577;2;18;2;834;1881;3760;-406;475;3631;-368
423587;2;18;2;834;1923;3852;-348;-185;3677;-431
423597;2;18;2;834;1863;3859;-114;-635;3525;-462
423607;2;18;2;834;1784;3916;112;-792;3258;-377
423617;2;18;2;834;1703;3907;273;-839;2948;-256
423627;2;18;2;834;1659;3897;394;-753;2627;-81
423637;2;18;2;834;1708;3855;413;-486;2393;66
423647;2;18;2;834;1816;3709;421;-259;2209;143
423657;2;18;2;834;1886;3709;330;-146;2087;74
423667;2;18;2;834;1995;3687;161;88;2195;-91
423677;2;18;2;834;2040;3645;-2;382;2505;-372
423687;2;18;2;834;2027;3604;-160;527;2989;-675
423697;2;18;2;834;1953;3675;36;593;3385;-911
423707;2;18;2;834;1788;3764;272;641;3405;-915
423717;2;18;2;834;1691;3816;406;655;3205;-780
423727;2;18;2;834;1609;3819;389;720;3118;-647
423737;2;18;2;834;1589;3848;332;945;3215;-555
423747;2;18;2;834;1581;3928;237;1265;3462;-527
423757;2;18;2;834;1613;4018;226;1576;3725;-585
423767;2;18;2;834;1637;4154;209;2039;4122;-770
423777;2;18;2;834;1590;4333;326;2551;4411;-965
423787;2;18;2;834;1508;4433;275;2913;4329;-985
423797;2;18;2;834;1357;4420;-50;2730;3866;-868
423807;2;18;2;834;1157;4310;-468;2121;3282;-609
423817;2;18;2;834;1032;4172;-821;1452;2965;-335
423827;2;18;2;834;1014;4006;-797;1091;2956;-134
423837;2;18;2;834;1024;3885;-461;1062;3179;-165
423847;2;18;2;834;1037;3853;-69;1084;3374;-222
423857;2;18;2;834;1116;3810;283;1013;3331;-188
423867;2;18;2;834;1182;3725;422;978;3155;-119
423877;2;18;2;834;1261;3638;424;997;3017;-81
423887;2;18;2;834;1348;3600;264;1033;3013;-207
423897;2;18;2;834;1384;3547;129;1262;3215;-449
423907;2;18;2;834;1337;3549;52;1548;3484;-687
423917;2;18;2;834;1233;3609;27;1483;3628;-846
423927;2;18;2;835;1082;3692;29;1347;3621;-880
423937;2;18;2;835;967;3744;10;1417;3608;-838
423947;2;18;2;835;891;3852;-24;1502;3590;-796
423957;2;18;2;835;873;3974;-3;1545;3491;-708
423967;2;18;2;835;869;4090;-2;1620;3364;-640
423977;2;18;2;835;857;4194;-97;1853;3361;-655
423987;2;18;2;835;813;4276;-208;2056;3473;-800
423997;2;18;2;835;865;4310;-329;2000;3577;-1014
424007;2;18;2;835;797;4393;-483;1586;3623;-1217
424017;2;18;2;835;755;4357;-698;862;3505;-1342
424027;2;18;2;835;579;4511;-613;70;3327;-1163
424037;2;18;2;835;456;4482;-446;-574;3121;-864
424047;2;18;2;835;351;4531;-131;-548;3008;-629
424057;2;18;2;835;328;4324;6;-40;2949;-435
424067;2;18;2;835;378;4188;-14;392;2991;-312
424077;2;18;2;835;466;4113;-11;501;3033;-242
424087;2;18;2;835;571;4080;57;535;3127;-309
424097;2;18;2;835;645;4110;38;696;3214;-431
424107;2;18;2;835;736;4089;-22;900;3243;-571
424117;2;18;2;835;756;4138;-116;994;3320;-768
424127;2;18;2;835;718;4139;-194;982;3358;-888
424137;2;18;2;835;663;4157;-296;998;3376;-1066
424147;2;18;2;835;582;4083;-434;643;3261;-1139
424157;2;18;2;835;463;4158;-446;-52;3069;-1149
424167;2;18;2;835;355;4132;-346;-407;2902;-1220
424177;2;18;2;835;130;4373;-52;-129;2907;-1028
424187;2;18;2;835;12;4271;71;969;3140;-1060
424197;2;18;2;835;219;4132;101;1730;3257;-1066
424207;2;18;2;835;304;4104;-104;1665;3194;-1032
424217;2;18;2;835;360;3946;-53;1718;3247;-1076
424227;2;18;2;835;473;3919;-109;2083;3399;-1373
424237;2;18;2;835;625;3935;-152;2241;3424;-1656
424247;2;18;2;835;655;4086;-100;2124;3313;-1926
424257;2;18;2;835;551;4155;-53;2104;3162;-2052
424267;2;18;2;835;619;4066;-119;2019;2859;-2374
424277;2;18;2;835;523;4226;-87;1877;2575;-2410
424287;2;18;2;835;687;4181;-334;1336;2044;-2636
424297;2;18;2;835;325;4434;-190;934;1906;-2379
424307;2;18;2;835;306;4202;-325;833;1751;-2325
424317;2;18;2;835;293;4161;-571;557;1787;-2340
424327;2;18;2;835;294;4167;-757;35;1875;-2343
424337;2;18;2;835;226;4246;-716;-393;2108;-2223
424347;2;18;2;835;279;4170;-583;-589;2317;-2108
424357;2;18;2;835;273;4153;-428;-787;2323;-1921
424367;2;18;2;835;329;4134;-379;-1044;2158;-1624
424377;2;18;2;835;301;4085;-314;-1290;2181;-1409
424387;2;18;2;835;336;3937;-202;-1354;2194;-1144
424397;2;18;2;835;324;3831;-177;-1352;2166;-927
424407;2;18;2;835;291;3827;18;-1300;2174;-605
424417;2;18;2;835;241;3816;193;-991;2180;-280
424427;2;18;2;836;278;3839;182;-511;2324;-42
424437;2;18;2;836;389;3757;4;-450;2515;172
424447;2;18;2;836;549;3708;-132;-669;2855;256
424457;2;18;2;836;623;3703;-209;-703;3434;249
424467;2;18;2;836;574;3730;-169;-661;3859;286
424477;2;18;2;836;584;3737;-129;-716;3970;463
424487;2;18;2;836;696;3881;42;-783;3878;664
424497;2;18;2;836;882;4134;296;-221;3944;806
424507;2;18;2;836;964;4347;426;827;4367;714
424517;2;18;2;836;955;4412;165;1535;4813;527
424527;2;18;2;836;929;4291;-327;1553;5092;229
424537;2;18;2;836;836;4115;-868;821;5182;-132
424547;2;18;2;836;560;4511;-863;-500;5167;-249
424557;2;18;2;836;343;5152;-461;-934;4683;176
424567;2;18;2;836;241;5212;-379;163;4134;669
424577;2;18;2;836;151;4750;-889;941;3936;949
424587;2;18;2;836;299;4464;-1297;329;3876;961
424597;2;18;2;836;582;4317;-1237;-414;3986;754
424607;2;18;2;836;836;4205;-931;-158;4283;388
424617;2;18;2;836;948;4118;-723;409;4258;11
424627;2;18;2;836;891;4056;-478;624;3976;-355
424637;2;18;2;836;744;4069;-215;776;3705;-547
424647;2;18;2;836;641;4120;-18;932;3481;-582
424657;2;18;2;836;616;4238;58;1036;3274;-508
424667;2;18;2;836;730;4311;50;1194;2976;-326
424677;2;18;2;836;900;4286;-133;1298;2553;-110
424687;2;18;2;836;1033;4206;-363;1185;2121;29
424697;2;18;2;836;1059;4107;-602;810;1850;29
424707;2;18;2;836;1040;4058;-609;274;1749;-37
424717;2;18;2;836;970;4043;-535;-253;1614;-89
424727;2;18;2;836;881;4008;-475;-660;1477;-137
424737;2;18;2;836;747;3948;-396;-902;1383;-136
424747;2;18;2;836;624;3940;-260;-1073;1248;-84
424757;2;18;2;836;587;3939;-105;-1164;1055;26
424767;2;18;2;836;602;3941;2;-1081;813;178
424777;2;18;2;836;673;3937;33;-848;490;377
424787;2;18;2;836;808;3844;-145;-654;205;457
424797;2;18;2;836;936;3762;-364;-472;212;341
424807;2;18;2;836;955;3761;-396;-470;238;156
424817;2;18;2;836;930;3824;-257;-624;0;93
424827;2;18;2;836;860;3941;-124;-688;-441;115
424837;2;18;2;836;810;3994;-142;-542;-853;192
424847;2;18;2;836;732;3970;-336;-194;-1053;144
424857;2;18;2;836;696;3954;-379;238;-1089;3
424867;2;18;2;836;670;4049;-381;384;-1429;-37
424877;2;18;2;836;636;4052;-413;257;-2163;111
424887;2;18;2;836;591;4019;-628;92;-2922;288
424897;2;18;2;836;627;3889;-907;-110;-3375;342
424907;2;18;2;836;645;3818;-983;-410;-3664;247
424917;2;18;2;836;710;3864;-817;-616;-4002;199
424927;2;18;2;837;834;3911;-664;-551;-4507;212
424937;2;18;2;837;892;3872;-652;-332;-5088;244
424947;2;18;2;837;886;3806;-772;-274;-5762;282
424957;2;18;2;837;875;3676;-836;-400;-6398;362
424967;2;18;2;837;837;3647;-895;-566;-6911;377
424977;2;18;2;837;840;3568;-902;-603;-7253;367
424987;2;18;2;837;900;3518;-897;-544;-7595;355
424997;2;18;2;837;947;3594;-849;-480;-7937;320
425007;2;18;2;837;1043;3664;-701;-310;-8222;192
425017;2;18;2;837;1164;3756;-571;-123;-8438;251
425027;2;18;2;837;1202;3840;-466;145;-8549;111
425037;2;18;2;837;1271;3961;-399;430;-8639;-51
425047;2;18;2;837;1204;4092;-407;644;-8678;-173
425057;2;18;2;837;1118;4130;-348;750;-8755;-208
425067;2;18;2;837;922;4179;-440;928;-8710;-250
425077;2;18;2;837;758;4186;-522;1201;-8599;-82
425087;2;18;2;837;591;4183;-630;1615;-8380;101
425097;2;18;2;837;470;4236;-756;1961;-8030;221
425107;2;18;2;837;378;4318;-977;2066;-7821;374
425117;2;18;2;837;396;4426;-1166;1745;-7675;520
425127;2;18;2;837;392;4530;-1197;1023;-7529;637
425137;2;18;2;837;357;4623;-919;305;-7276;656
425147;2;18;2;837;345;4675;-444;-35;-6945;570
425157;2;18;2;837;325;4631;20;111;-6697;535
425167;2;18;2;837;378;4517;153;521;-6810;547
425177;2;18;2;837;461;4365;-41;739;-7078;583
425187;2;18;2;837;456;4224;-185;759;-7458;648
425197;2;18;2;837;339;4100;-336;633;-7829;723
425207;2;18;2;837;143;4148;-377;377;-7982;830
425217;2;18;2;837;2;4295;-367;59;-8033;955
425227;2;18;2;837;-87;4456;-308;-244;-8088;1109
425237;2;18;2;837;-83;4477;-348;-322;-8171;1205
425247;2;18;2;837;6;4435;-427;-211;-8102;1128
425257;2;18;2;837;88;4474;-419;-264;-8060;1082
425267;2;18;2;837;238;4455;-326;-392;-8179;1101
425277;2;18;2;837;358;4348;-252;-475;-8340;1039
425287;2;18;2;837;451;4244;-244;-374;-8268;926
425297;2;18;2;837;456;4133;-390;-250;-7879;702
425307;2;18;2;837;422;4047;-396;-387;-7427;410
425317;2;18;2;837;460;4008;-332;-507;-7162;278
425327;2;18;2;837;509;4058;-326;-702;-7084;262
425337;2;18;2;837;576;4082;-331;-824;-7014;303
425347;2;18;2;837;636;4075;-434;-959;-6898;354
425357;2;18;2;837;641;4049;-491;-1128;-6716;465
425367;2;18;2;837;669;4071;-466;-1176;-6532;546
425377;2;18;2;837;578;4134;-384;-1199;-6354;686
425387;2;18;2;837;543;4132;-339;-1050;-6352;885
425397;2;18;2;837;434;4133;-525;-1051;-6282;1093
425407;2;18;2;837;375;4037;-680;-1358;-6165;1288
425417;2;18;2;837;274;3952;-849;-1778;-5862;1362
425427;2;18;2;838;162;3908;-871;-2172;-5340;1358
425437;2;18;2;838;63;3937;-707;-2375;-4911;1383
425447;2;18;2;838;35;3991;-526;-2300;-4696;1392
425457;2;18;2;838;61;3991;-407;-2016;-4724;1463
425467;2;18;2;838;91;3883;-400;-1695;-4849;1639
425477;2;18;2;838;126;3795;-466;-1311;-5076;1824
425487;2;18;2;838;127;3664;-531;-1063;-5307;1953
425497;2;18;2;838;42;3513;-663;-972;-5415;2030
425507;2;18;2;838;1;3344;-759;-886;-5399;2079
425517;2;18;2;838;39;3199;-681;-849;-5335;2055
425527;2;18;2;838;111;3181;-579;-709;-5423;2059
425537;2;18;2;838;152;3137;-541;-355;-5597;2051
425547;2;18;2;838;215;3026;-568;170;-5802;2002
425557;2;18;2;838;252;2946;-718;566;-5833;1793
425567;2;18;2;838;234;2781;-770;937;-5841;1548
425577;2;18;2;838;200;2565;-829;1184;-6014;1443
425587;2;18;2;838;158;2403;-849;1327;-6320;1529
425597;2;18;2;838;169;2113;-887;1592;-6645;1792
425607;2;18;2;838;116;1823;-1186;1534;-6548;1667
425617;2;18;2;838;123;2047;-1245;1606;-5943;1613
425627;2;18;2;838;271;1671;-1231;1848;-5525;1386
425637;2;18;2;838;170;1817;-1079;1794;-5429;1349
425647;2;18;2;838;125;2010;-858;1804;-5542;1231
425657;2;18;2;838;238;2070;-692;2271;-5704;1154
425667;2;18;2;838;310;1968;-756;2961;-6058;1210
425677;2;18;2;838;335;1790;-1083;3482;-6262;1234
425687;2;18;2;838;386;1623;-1396;3740;-6124;1200
425697;2;18;2;838;397;1493;-1449;3636;-5516;1105
425707;2;18;2;838;390;1583;-1132;3194;-4793;924
425717;2;18;2;838;370;1960;-723;2879;-4425;925
425727;2;18;2;838;601;2417;-510;3164;-4653;1153
425737;2;18;2;838;1036;2839;-613;3786;-5233;1357
425747;2;18;2;838;1665;3191;-906;3795;-5860;1212
425757;2;18;2;838;1728;3290;-1040;3576;-5773;1014
425767;2;18;2;838;1604;3346;-1538;3133;-5114;1108
425777;2;18;2;838;1498;3262;-1849;1547;-3923;1997
425787;2;18;2;838;1886;3008;-1462;-1361;-2995;2847
425797;2;18;2;838;2108;3172;-631;-3879;-2231;2735
425807;2;18;2;838;1739;3382;-237;-4988;-1700;2315
425817;2;18;2;838;1244;3522;-64;-4532;-2130;1895
425827;2;18;2;838;672;3611;-297;-2788;-3150;2100
425837;2;18;2;838;-6;3327;-974;-1078;-4357;2948
425847;2;18;2;838;-402;3025;-1758;126;-4937;3831
425857;2;18;2;838;-355;2663;-2452;885;-4444;4634
425867;2;18;2;838;-114;2395;-2643;757;-2786;5011
425877;2;18;2;838;295;2433;-2236;-187;-714;4751
425887;2;18;2;838;621;2987;-609;-956;266;4442
425897;2;18;2;838;985;3400;155;-120;-484;4472
425907;2;18;2;838;1228;3241;-645;1085;-1416;4262
425917;2;18;2;838;1282;2988;-1729;1292;-1885;3436
425927;2;18;2;839;942;3064;-2342;986;-2358;2686
425937;2;18;2;839;419;3392;-2567;1205;-3055;2675
425947;2;18;2;839;241;3799;-2947;2332;-3665;3466
425957;2;18;2;839;476;3934;-3248;2031;-3556;4852
425967;2;18;2;839;1138;4068;-2764;91;-2907;6185
425977;2;18;2;839;1996;4323;-1953;-1967;-2051;6650
425987;2;18;2;839;2789;4634;-1031;-2804;-1201;6049
425997;2;18;2;839;3070;4561;-764;-2173;-388;4739
426007;2;18;2;839;2872;4310;-836;-887;406;3260
426017;2;18;2;839;2174;4202;-1276;163;1332;1915
426027;2;18;2;839;1249;4262;-2094;459;2458;1090
426037;2;18;2;839;520;4306;-3046;600;3946;1315
426047;2;18;2;839;275;4817;-2936;1351;5541;1624
426057;2;18;2;839;623;5271;-2606;1351;6404;2479
426067;2;18;2;839;1441;5305;-2584;930;6307;2722
426077;2;18;2;839;2190;5719;-2883;-124;5598;2893
426087;2;18;2;839;3008;5473;-2953;-871;5005;2527
426097;2;18;2;839;2968;5536;-2601;-1490;4849;1322
426107;2;18;2;839;1934;5791;-2347;-1886;4653;265
426117;2;18;2;839;975;5897;-2179;-1580;4838;48
426127;2;18;2;839;-14;5996;-2348;-1093;5191;503
426137;2;18;2;839;-557;6258;-2971;-1081;5178;1320
426147;2;18;2;839;-337;6035;-3624;-931;5059;2542
426157;2;18;2;839;725;5397;-4640;-800;5527;3328
426167;2;18;2;839;2044;4800;-5065;-2149;6633;3290
426177;2;18;2;839;3183;4145;-4499;-4692;7342;2614
426187;2;18;2;839;3705;3737;-3221;-7890;7091;1225
426197;2;18;2;839;3032;3999;-1572;-10794;6892;-285
426207;2;18;2;839;2207;4236;745;-10143;6705;-1331
426217;2;18;2;839;1711;4612;1338;-5590;5914;-1657
426227;2;18;2;839;1744;4314;53;-28;5143;-1496
426237;2;18;2;839;1476;4326;-1648;3148;4218;-668
426247;2;18;2;839;1529;4037;-3326;2727;3010;496
426257;2;18;2;839;2131;3626;-4750;-1307;2189;1367
426267;2;18;2;839;3251;3376;-5248;-5754;2702;1168
426277;2;18;2;839;4267;3639;-3540;-10460;3870;-514
426287;2;18;2;839;3901;5385;2626;-10601;1705;-1056
426297;2;18;2;839;3359;5185;2182;-4982;-342;158
426307;2;18;2;839;3211;3247;-1367;-992;224;632
426317;2;18;2;839;3039;1881;-2494;-1968;1141;211
426327;2;18;2;839;2655;2093;-1100;-4419;1861;-374
426337;2;18;2;839;2375;2603;-90;-5086;2820;-554
426347;2;18;2;839;2301;2720;-250;-5447;3633;-440
426357;2;18;2;839;2755;2317;-710;-5574;4340;-322
426367;2;18;2;839;3018;2330;-1064;-5422;5251;-725
426377;2;18;2;839;3120;2452;-1661;-5785;6047;-1104
426387;2;18;2;839;3370;2407;-2037;-6310;6357;-1573
426397;2;18;2;839;3433;2593;-2279;-6471;5863;-1978
426407;2;18;2;839;2745;2633;-2765;-6877;4521;-2187
426417;2;18;2;839;1724;2440;-3124;-7488;3465;-2345
426427;2;18;2;840;442;1762;-2831;-8306;3293;-2626
426437;2;18;2;840;208;831;-831;-8716;4092;-3210
426447;2;18;2;840;-31;386;1390;-7533;4553;-3022
426457;2;18;2;840;-82;-1010;1720;-6942;3839;-1593
426467;2;18;2;840;610;-2225;286;-7834;2892;-323
426477;2;18;2;840;667;-2914;-882;-6671;2728;-652
426487;2;18;2;840;712;-1775;-1899;-4287;3172;-2075
426497;2;18;2;840;2244;216;-1570;-4449;5741;-4048
426507;2;18;2;840;4475;3304;1566;-6910;13308;-6778
426517;2;18;2;840;5801;10814;9875;-12697;23062;-10627
426527;2;18;2;840;3592;17517;17002;-18907;18372;-5208
426537;2;18;2;840;3075;13240;16698;-22271;9574;209
426547;2;18;2;840;-156;5501;12605;-21841;9194;54
426557;2;18;2;840;-3265;-572;6215;-24842;14509;-2050
426567;2;18;2;840;-3455;-1409;4589;-20777;17151;-940
426577;2;18;2;840;-1802;-2679;3319;-16301;13748;1772
426587;2;18;2;840;-873;-3047;2830;-18568;9719;2079
426597;2;18;2;840;674;-3316;2586;-17761;7539;104
426607;2;18;2;840;1497;-3349;2522;-15740;6657;-4120
426617;2;18;2;840;1237;-3009;4070;-13717;4789;-8171
426627;2;18;2;840;68;-2453;4977;-11500;2719;-10395
426637;2;18;2;840;-582;-1922;5657;-9659;1864;-11067
426647;2;18;2;840;-1418;-273;6072;-9037;909;-10310
426657;2;18;2;840;-1693;1778;6821;-10135;-809;-7059
426667;2;18;2;840;-1273;3805;7154;-12578;-2001;-3405
426677;2;18;2;840;238;4821;8941;-14062;-3166;-503
426687;2;18;2;840;1967;4238;7891;-14227;-3672;647
426697;2;18;2;840;2501;3017;6415;-15197;-2408;447
426707;2;18;2;840;1908;1620;6046;-16618;-1232;-270
426717;2;18;2;840;1071;142;6541;-16673;-53;41
426727;2;18;2;840;671;-1751;6944;-14633;837;976
426737;2;18;2;840;707;-3330;7369;-11697;-131;2183
426747;2;18;2;840;238;-3591;6082;-7734;-989;3922
426757;2;18;2;840;-58;-3901;3607;-4100;-921;2933
426767;2;18;2;840;-502;-3322;2904;-964;868;2808
426777;2;18;2;840;-125;-3155;2453;2752;1944;2030
426787;2;18;2;840;-135;-2264;1993;4767;2246;435
426797;2;18;2;840;-671;-1378;2083;5318;1833;-1024
426807;2;18;2;840;-1372;-345;2091;5862;1701;-1993
426817;2;18;2;840;-1624;890;2148;4980;2201;-2635
426827;2;18;2;840;-1489;2313;3199;3544;2940;-3172
426837;2;18;2;840;-710;3275;4177;2185;3426;-3498
426847;2;18;2;840;-368;4124;4961;647;3960;-3790
426857;2;18;2;840;-205;3885;5826;-1135;3320;-3137
426867;2;18;2;840;31;2892;5575;-2740;2247;-2545
426877;2;18;2;840;-142;2338;5305;-3771;1170;-2076
426887;2;18;2;840;-394;1576;4978;-3696;134;-1581
426897;2;18;2;840;-351;655;4326;-3391;172;-1453
426907;2;18;2;840;-298;-31;3974;-3690;973;-1883
426917;2;18;2;840;-239;-300;4172;-4110;1502;-2192
426927;2;18;2;841;-400;-337;4087;-4632;1767;-2090
426937;2;18;2;841;-388;-384;4286;-4777;1711;-1697
426947;2;18;2;841;-301;-372;4231;-4019;1401;-1442
426957;2;18;2;841;-542;-275;4173;-3017;856;-862
426967;2;18;2;841;-308;-280;4094;-1852;-142;-537
426977;2;18;2;841;-127;112;4422;-913;-785;14
426987;2;18;2;841;27;457;5026;-62;-1381;1005
426997;2;18;2;841;29;335;4623;-299;-1144;1166
427007;2;18;2;841;-9;78;4109;-1622;-259;477
427017;2;18;2;841;51;-373;4041;-2459;412;-93
427027;2;18;2;841;-157;-611;3921;-1674;464;-474
427037;2;18;2;841;-712;-766;3463;-242;-11;-347
427047;2;18;2;841;-1168;-1006;3266;947;-796;188
427057;2;18;2;841;-1331;-887;3252;1804;-1761;1437
427067;2;18;2;841;-867;-1033;3610;2369;-2622;2948
427077;2;18;2;841;-17;-607;4200;2388;-2648;3732
427087;2;18;2;841;935;288;4728;1920;-1526;2915
427097;2;18;2;841;1436;963;4911;1999;192;891
427107;2;18;2;841;1328;706;4615;2967;1151;-669
427117;2;18;2;841;776;163;4021;3564;1150;-1527
427127;2;18;2;841;-82;25;3907;3816;736;-1720
427137;2;18;2;841;-831;-8;3712;3883;783;-1283
427147;2;18;2;841;-881;-271;3233;3644;707;-416
427157;2;18;2;841;-443;-447;3159;3552;-193;709
427167;2;18;2;841;25;-354;3515;3445;-1274;1435
427177;2;18;2;841;415;109;4649;3157;-1805;1365
427187;2;18;2;841;684;435;5428;3154;-1511;639
427197;2;18;2;841;572;352;5373;3440;-514;-382
427207;2;18;2;841;223;255;5375;3982;349;-989
427217;2;18;2;841;94;223;5379;4784;869;-1010
427227;2;18;2;841;39;432;5329;5801;525;-721
427237;2;18;2;841;186;285;4772;6346;-583;-203
427247;2;18;2;841;77;769;4278;5744;-1661;343
427257;2;18;2;841;182;562;4002;3908;-3033;924
427267;2;18;2;841;-436;1266;3754;1713;-4166;1368
427277;2;18;2;841;-926;1432;4016;1209;-4576;1833
427287;2;18;2;841;-898;1203;4594;2819;-4176;1907
427297;2;18;2;841;-555;899;4466;4853;-4108;1903
427307;2;18;2;841;-280;689;3997;5844;-4880;2434
427317;2;18;2;841;209;250;3921;5391;-6069;2908
427327;2;18;2;841;627;201;4197;4143;-6880;3009
427337;2;18;2;841;1075;226;4347;3603;-6865;2530
427347;2;18;2;841;1277;562;4748;4571;-6081;1962
427357;2;18;2;841;1376;812;5215;6357;-5118;1712
427367;2;18;2;841;1079;1208;5024;8139;-4028;1350
427377;2;18;2;841;676;1755;5307;9441;-2738;1064
427387;2;18;2;841;585;2034;5211;10212;-1656;881
427397;2;18;2;841;500;2184;4490;11028;-334;578
427407;2;18;2;841;538;2181;4033;11149;474;816
427417;2;18;2;841;855;2143;3468;10419;-37;1463
427427;2;18;2;842;1158;2161;3043;9627;-1061;2167
427437;2;18;2;842;1438;2107;2918;8765;-2085;2451
427447;2;18;2;842;1526;2186;3089;7433;-2488;1670
427457;2;18;2;842;1217;2515;3685;5891;-2283;434
427467;2;18;2;842;926;2709;4502;5857;-2233;-117
427477;2;18;2;842;842;2533;4771;7630;-2800;77
427487;2;18;2;842;557;2475;4433;8970;-4352;628
427497;2;18;2;842;221;2539;4061;9165;-6023;1762
427507;2;18;2;842;168;2420;3964;9381;-7278;2726
427517;2;18;2;842;461;2365;3876;10115;-7723;3344
427527;2;18;2;842;822;2371;3743;11383;-7303;3548
427537;2;18;2;842;929;2561;3505;12682;-6872;3886
427547;2;18;2;842;930;2595;2958;13485;-6670;4564
427557;2;18;2;842;1128;2503;2617;13789;-6565;5129
427567;2;18;2;842;1610;2549;2425;14234;-6711;5282
427577;2;18;2;842;1868;2659;1975;16099;-7085;4763
427587;2;18;2;842;1773;2354;1474;16086;-6514;4855
427597;2;18;2;842;1732;2121;1366;13193;-6154;4611
427607;2;18;2;842;1622;2510;1467;10665;-6078;3786
427617;2;18;2;842;1716;2739;1930;9940;-5529;3150
427627;2;18;2;842;1472;3127;2543;10811;-4992;2809
427637;2;18;2;842;1268;3523;2942;12259;-5638;3221
427647;2;18;2;842;1303;3562;2912;13722;-7121;4111
427657;2;18;2;842;1303;3390;2529;15263;-8840;4883
427667;2;18;2;842;1459;2939;1581;16848;-10001;4942
427677;2;18;2;842;1643;2512;298;18258;-9967;4007
427687;2;18;2;842;1740;2368;-743;18969;-8763;2405
427697;2;18;2;842;1672;2435;-1135;18251;-7486;1343
427707;2;18;2;842;1600;2479;-1039;16477;-7158;1035
427717;2;18;2;842;1335;2754;-864;14063;-7543;1313
427727;2;18;2;842;1124;2934;-774;11867;-7987;2123
427737;2;18;2;842;1169;2928;-654;10071;-8174;2643
427747;2;18;2;842;1326;3003;-589;8949;-8088;2595
427757;2;18;2;842;1886;3036;-677;8743;-7921;2106
427767;2;18;2;842;2280;3078;-1087;9582;-7789;1650
427777;2;18;2;842;2650;2995;-1854;11283;-7372;1161
427787;2;18;2;842;2840;2887;-2640;12444;-7047;483
427797;2;18;2;842;2738;2849;-3234;11762;-6809;2
427807;2;18;2;842;2522;2922;-3243;9224;-6977;-168
427817;2;18;2;842;2203;3098;-3050;5937;-7657;-4
427827;2;18;2;842;1797;3285;-2767;3506;-8227;556
427837;2;18;2;842;1641;3282;-2482;2506;-8229;1180
427847;2;18;2;842;1685;3259;-2275;2361;-7694;1421
427857;2;18;2;842;1743;3335;-2174;2497;-7089;1206
427867;2;18;2;842;1849;3381;-2193;3030;-6315;763
427877;2;18;2;842;1907;3428;-2003;3531;-5867;465
427887;2;18;2;842;1895;3369;-1983;3735;-6265;258
427897;2;18;2;842;1695;3423;-2279;4149;-6663;23
427907;2;18;2;842;1557;3317;-2608;5015;-6294;-96
427917;2;18;2;842;1661;2970;-2634;5808;-5790;-188
427927;2;18;2;843;1782;2763;-2590;6070;-5707;-353
427937;2;18;2;843;1640;2855;-2411;5965;-6163;-144
427947;2;18;2;843;1684;2662;-2143;5889;-7084;299
427957;2;18;2;843;1773;2545;-2001;6089;-8112;393
427967;2;18;2;843;1780;2542;-2017;6490;-8869;549
427977;2;18;2;843;1667;2500;-1948;6776;-9320;752
427987;2;18;2;843;1321;2474;-1995;6799;-9466;1225
427997;2;18;2;843;963;2507;-2119;6549;-8980;1906
428007;2;18;2;843;817;2580;-2520;5866;-7670;2626
428017;2;18;2;843;1155;2591;-2772;4093;-5389;2846
428027;2;18;2;843;1618;2803;-2399;1163;-3387;2177
428037;2;18;2;843;1957;3220;-1439;-908;-2770;1257
428047;2;18;2;843;2182;3458;-555;-76;-3492;607
428057;2;18;2;843;2067;3456;-372;3604;-4725;-47
428067;2;18;2;843;1676;3099;-838;8497;-5529;-475
428077;2;18;2;843;1247;2602;-1797;12342;-5639;-536
428087;2;18;2;843;920;2175;-2936;13730;-5397;-340
428097;2;18;2;843;835;1780;-3732;12874;-5186;367
428107;2;18;2;843;1010;1269;-4502;10538;-5057;1310
428117;2;18;2;843;1111;940;-5092;7797;-4725;2034
428127;2;18;2;843;1271;616;-5494;5384;-4064;2573
428137;2;18;2;843;1599;263;-5680;3261;-2833;2721
428147;2;18;2;843;1857;183;-5681;1285;-1129;2475
428157;2;18;2;843;1891;386;-5257;-555;446;2269
428167;2;18;2;843;1870;935;-4791;-2009;1015;2481
428177;2;18;2;843;1948;1347;-4441;-2734;869;3261
428187;2;18;2;843;2073;1409;-4531;-2525;766;3982
428197;2;18;2;843;2208;1396;-4799;-1898;938;4165
428207;2;18;2;843;2395;1452;-5030;-2111;1207;4137
428217;2;18;2;843;2593;1422;-4941;-3307;1362;3925
428227;2;18;2;843;2712;1480;-4587;-4419;1361;3370
428237;2;18;2;843;2756;1492;-4030;-4815;1155;2815
428247;2;18;2;843;2775;1371;-3635;-4642;796;2068
428257;2;18;2;843;2554;1513;-3373;-4311;541;1266
428267;2;18;2;843;2278;1581;-3119;-4262;318;815
428277;2;18;2;843;2039;1607;-2849;-4389;92;532
428287;2;18;2;843;1754;1708;-2652;-4277;2;330
428297;2;18;2;843;1461;1842;-2573;-3796;93;181
428307;2;18;2;843;1231;1942;-2465;-3088;149;194
428317;2;18;2;843;1147;1884;-2523;-2235;43;296
428327;2;18;2;843;1121;1788;-2761;-1370;-67;394
428337;2;18;2;843;1121;1741;-2970;-833;-261;588
428347;2;18;2;843;1124;1716;-3241;-759;-531;864
428357;2;18;2;843;1130;1774;-3350;-1127;-765;1175
428367;2;18;2;843;1124;1787;-3233;-1559;-1093;1543
428377;2;18;2;843;1230;1608;-3382;-1511;-1248;1698
428387;2;18;2;843;1326;1470;-3731;-1025;-724;1346
428397;2;18;2;843;1355;1380;-4032;-788;375;688
428407;2;18;2;843;1320;1290;-3968;-1253;1338;210
428417;2;18;2;843;1377;1250;-3709;-2048;1613;124
428427;2;18;2;844;1429;1304;-3493;-2778;1319;388
428437;2;18;2;844;1416;1295;-3508;-2902;1080;770
428447;2;18;2;844;1495;1092;-3765;-2527;1394;838
428457;2;18;2;844;1558;1047;-3919;-2234;2029;731
428467;2;18;2;844;1644;1069;-3945;-2781;2559;772
428477;2;18;2;844;1785;1083;-3730;-3853;2839;937
428487;2;18;2;844;2051;1149;-3341;-4694;2879;1049
428497;2;18;2;844;2267;1259;-3086;-4882;2882;932
428507;2;18;2;844;2436;1472;-3000;-4420;3151;409
428517;2;18;2;844;2416;1602;-2931;-3659;3686;-412
428527;2;18;2;844;2357;1634;-2810;-3070;4260;-1463
428537;2;18;2;844;2162;1767;-2452;-2855;4487;-2533
428547;2;18;2;844;1879;1868;-2188;-2608;4223;-3138
428557;2;18;2;844;1712;1734;-2312;-1862;4124;-3538
428567;2;18;2;844;1597;1715;-2395;-907;4215;-3956
428577;2;18;2;844;1477;1912;-2342;-418;4074;-4119
428587;2;18;2;844;1412;2182;-2268;-433;3561;-3937
428597;2;18;2;844;1349;2486;-2237;-511;2891;-3660
428607;2;18;2;844;1230;2702;-2174;-141;2111;-3336
428617;2;18;2;844;1171;2823;-2341;618;1459;-3265
428627;2;18;2;844;1017;2988;-2795;1802;1167;-3529
428637;2;18;2;844;983;2930;-3107;2793;1224;-3950
428647;2;18;2;844;974;2933;-3203;3179;1032;-4492
428657;2;18;2;844;923;3145;-3272;3200;527;-4876
428667;2;18;2;844;891;3252;-3288;3387;-114;-5172
428677;2;18;2;844;819;3376;-3434;4017;-632;-5515
428687;2;18;2;844;611;3415;-3739;5038;-1039;-5677
428697;2;18;2;844;490;3159;-4060;5900;-1323;-5599
428707;2;18;2;844;498;2855;-4320;5816;-1571;-5448
428717;2;18;2;844;491;2707;-4358;4918;-1605;-5049
428727;2;18;2;844;464;2645;-4192;4005;-1628;-4412
428737;2;18;2;844;529;2577;-3975;3503;-1690;-3853
428747;2;18;2;844;717;2459;-3753;3484;-1832;-3425
428757;2;18;2;844;1022;2306;-3511;3747;-2221;-3193
428767;2;18;2;844;1292;2256;-3575;3981;-2737;-3278
428777;2;18;2;844;1289;2369;-3942;3986;-2834;-3500
428787;2;18;2;844;1238;2333;-4234;3743;-2340;-3939
428797;2;18;2;844;769;2705;-4208;3492;-1529;-4271
428807;2;18;2;844;693;2672;-3969;3171;-1312;-4483
428817;2;18;2;844;479;3025;-3833;2671;-1602;-4255
428827;2;18;2;844;331;3122;-3748;2134;-2024;-3467
428837;2;18;2;844;375;3040;-3721;2113;-2474;-3042
428847;2;18;2;844;504;2925;-3857;2530;-2697;-2829
428857;2;18;2;844;649;2882;-4026;2976;-2811;-2938
428867;2;18;2;844;885;2806;-4096;3276;-3096;-3077
428877;2;18;2;844;1117;2672;-4359;3790;-3328;-3419
428887;2;18;2;844;1280;2563;-4671;4799;-3429;-4090
428897;2;18;2;844;1302;2385;-5077;5935;-3663;-4458
428907;2;18;2;844;1131;2249;-5720;6370;-4033;-4489
428917;2;18;2;844;724;2356;-6101;5377;-4133;-4247
428927;2;18;2;845;276;2492;-6164;4167;-4294;-3883
428937;2;18;2;845;-3;2574;-6209;3825;-4254;-3695
428947;2;18;2;845;-164;2526;-6253;4216;-3947;-3714
428957;2;18;2;845;-110;2271;-6238;4924;-3666;-4039
428967;2;18;2;845;-171;2035;-6253;4808;-3654;-4206
428977;2;18;2;845;-132;1735;-6158;4550;-4166;-4037
428987;2;18;2;845;-67;1279;-6279;4581;-4516;-3695
428997;2;18;2;845;25;1081;-6480;4242;-4332;-3655
429007;2;18;2;845;-41;1125;-6397;3419;-3657;-3756
429017;2;18;2;845;-150;1188;-6118;2550;-2908;-3684
429027;2;18;2;845;-279;1376;-5823;1767;-2123;-3570
429037;2;18;2;845;-542;1690;-5440;1115;-1412;-3284
429047;2;18;2;845;-612;1820;-5016;753;-907;-2861
429057;2;18;2;845;-523;1829;-4644;862;-480;-2570
429067;2;18;2;845;-356;1931;-4353;1174;-130;-2364
429077;2;18;2;845;10;1977;-4230;1692;49;-2368
429087;2;18;2;845;524;2018;-4323;2332;295;-2700
429097;2;18;2;845;916;1955;-4633;2464;786;-3343
429107;2;18;2;845;1037;1938;-4731;1912;1344;-4176
429117;2;18;2;845;1039;1948;-4608;956;1611;-4787
429127;2;18;2;845;881;1920;-4441;19;1747;-5177
429137;2;18;2;845;501;1987;-4108;-590;1784;-5514
429147;2;18;2;845;79;2037;-3917;-725;1728;-5567
429157;2;18;2;845;-385;2052;-3806;-506;1806;-5417
429167;2;18;2;845;-814;1991;-3966;-156;1913;-5119
429177;2;18;2;845;-1021;1818;-4305;67;2368;-4781
429187;2;18;2;845;-1003;1571;-4696;-342;3244;-4454
429197;2;18;2;845;-796;1412;-4777;-1336;3979;-4195
429207;2;18;2;845;-297;1296;-4688;-2862;4710;-3904
429217;2;18;2;845;241;1463;-4367;-4514;5261;-3827
429227;2;18;2;845;541;1725;-3892;-5708;5480;-3831
429237;2;18;2;845;831;1902;-3443;-6105;5568;-3973
429247;2;18;2;845;1033;2051;-3043;-5894;5600;-4393
429257;2;18;2;845;1157;2159;-2862;-5390;5649;-4980
429267;2;18;2;845;1087;2223;-2763;-4840;5726;-5716
429277;2;18;2;845;795;2182;-2573;-4337;5582;-6169
429287;2;18;2;845;558;1898;-2477;-3700;5011;-6066
429297;2;18;2;845;325;1609;-2717;-3191;4407;-5889
429307;2;18;2;845;-46;1348;-3139;-3123;4320;-5542
429317;2;18;2;845;-203;846;-3437;-3574;4799;-5250
429327;2;18;2;845;-221;650;-3536;-4758;5794;-5244
429337;2;18;2;845;-345;661;-3291;-6396;6896;-5099
429347;2;18;2;845;-411;669;-2831;-8015;7654;-4772
429357;2;18;2;845;-502;683;-2339;-9313;8323;-4496
429367;2;18;2;845;-615;743;-1908;-10079;9088;-4357
429377;2;18;2;845;-730;928;-1550;-10204;9887;-4297
429387;2;18;2;845;-889;1261;-1170;-9864;10443;-4051
429397;2;18;2;845;-1041;1568;-844;-9249;10556;-3409
429407;2;18;2;845;-1008;1760;-784;-8299;10320;-2329
429417;2;18;2;845;-830;1837;-990;-6883;9841;-1169
429427;2;18;2;846;-628;1845;-1528;-5374;9379;-285
429437;2;18;2;846;-289;1634;-1981;-4316;9251;154
429447;2;18;2;846;60;1544;-2283;-4093;8969;301
429457;2;18;2;846;283;1605;-2465;-4882;8494;511
429467;2;18;2;846;603;1528;-2472;-6141;7823;767
429477;2;18;2;846;963;1517;-2376;-7114;7320;588
429487;2;18;2;846;1257;1748;-2002;-7674;6591;211
429497;2;18;2;846;1518;2032;-1637;-8007;5530;-114
429507;2;18;2;846;1582;2499;-1255;-8307;4202;-561
429517;2;18;2;846;1380;3050;-855;-8190;2666;-860
429527;2;18;2;846;1042;3423;-464;-6874;1120;-853
429537;2;18;2;846;775;3567;-148;-4132;-346;-729
429547;2;18;2;846;539;3624;-127;-549;-1777;-389
429557;2;18;2;846;505;3416;-687;3128;-2823;29
429567;2;18;2;846;599;3016;-1732;6066;-2840;-71
429577;2;18;2;846;674;2602;-2625;7502;-1664;-877
429587;2;18;2;846;1009;2240;-3226;7088;-77;-2065
429597;2;18;2;846;1365;2210;-3593;4578;2235;-3949
429607;2;18;2;846;1318;2464;-3198;1287;4422;-5641
429617;2;18;2;846;1195;2612;-2417;-751;5633;-6496
429627;2;18;2;846;1181;2730;-1807;-1206;6308;-6644
429637;2;18;2;846;1006;3013;-1437;-735;6755;-6606
429647;2;18;2;846;594;3397;-1247;173;6740;-6196
429657;2;18;2;846;374;3408;-1228;1572;6148;-5170
429667;2;18;2;846;376;3216;-1683;3244;5559;-4211
429677;2;18;2;846;481;3074;-2286;4885;5459;-3758
429687;2;18;2;846;623;3034;-2815;6362;5061;-3290
429697;2;18;2;846;820;2874;-3461;7249;4098;-2678
429707;2;18;2;846;961;2720;-4147;7187;3204;-2193
429717;2;18;2;846;1126;2627;-4743;6261;2911;-1670
429727;2;18;2;846;1250;2518;-5076;4512;3115;-1249
429737;2;18;2;846;1347;2466;-5195;2638;3706;-1325
429747;2;18;2;846;1550;2478;-4918;1317;4316;-1439
429757;2;18;2;846;1774;2502;-4514;690;4630;-1372
429767;2;18;2;846;1922;2498;-4065;509;4477;-1291
429777;2;18;2;846;2069;2568;-3693;626;3918;-1215
429787;2;18;2;846;2094;2593;-3520;1004;3217;-1084
429797;2;18;2;846;2139;2408;-3577;1690;2897;-995
429807;2;18;2;846;2157;2200;-3600;2275;2935;-998
429817;2;18;2;846;2183;2022;-3561;2008;3013;-770
429827;2;18;2;846;2429;1760;-3496;776;3108;-498
429837;2;18;2;846;2685;1617;-3426;-757;3626;-735
429847;2;18;2;846;2727;1630;-3133;-2026;4559;-1255
429857;2;18;2;846;2603;1690;-2572;-2786;5447;-1678
429867;2;18;2;846;2638;1831;-1930;-3028;5700;-1787
429877;2;18;2;846;2760;1971;-1538;-2803;5266;-1651
429887;2;18;2;846;2773;2142;-1314;-1967;4218;-1706
429897;2;18;2;846;2611;2244;-1420;-802;3626;-1990
429907;2;18;2;846;2457;2175;-1363;1113;3563;-2389
429917;2;18;2;846;2174;2169;-1295;2893;3374;-2590
429927;2;18;2;847;1795;2320;-1249;3767;2759;-2368
429937;2;18;2;847;1706;2404;-1250;3950;1847;-1856
429947;2;18;2;847;1766;2378;-1616;4488;956;-1416
429957;2;18;2;847;1659;2329;-2087;5668;909;-1253
429967;2;18;2;847;1592;2250;-2404;6678;1134;-1021
429977;2;18;2;847;1590;2238;-2657;6577;1223;-704
429987;2;18;2;847;1659;2346;-2725;5536;952;-224
429997;2;18;2;847;1847;2385;-2872;4562;303;296
430007;2;18;2;847;2047;2383;-3218;4408;11;413
430017;2;18;2;847;2065;2397;-3385;4647;176;268
430027;2;18;2;847;2052;2360;-3422;4550;246;246
430037;2;18;2;847;2070;2343;-3389;3774;-57;433
430047;2;18;2;847;2111;2261;-3348;2620;-719;888
430057;2;18;2;847;2203;2076;-3617;1644;-1000;998
430067;2;18;2;847;2176;2034;-3746;1040;-402;570
430077;2;18;2;847;2134;2029;-3562;466;429;245
430087;2;18;2;847;2075;2016;-3198;-349;876;232
430097;2;18;2;847;2024;2024;-2903;-1199;892;374
430107;2;18;2;847;2042;2040;-2673;-1607;1046;430
430117;2;18;2;847;2121;2120;-2367;-1409;1217;449
430127;2;18;2;847;2194;2165;-2157;-852;1041;637
430137;2;18;2;847;2306;2103;-2064;-261;544;866
430147;2;18;2;847;2292;2074;-2245;274;55;945
430157;2;18;2;847;2222;2049;-2342;681;-70;962
430167;2;18;2;847;2222;2001;-2382;969;-96;954
430177;2;18;2;847;2293;2017;-2478;1133;-256;951
430187;2;18;2;847;2251;2080;-2734;1225;-424;872
430197;2;18;2;847;2204;2025;-2867;1460;-304;661
430207;2;18;2;847;2166;1963;-2883;1774;-194;496
430217;2;18;2;847;2075;1959;-2892;1784;-236;500
430227;2;18;2;847;2032;1975;-2916;1399;-313;511
430237;2;18;2;847;1977;1985;-3083;1243;-215;419
430247;2;18;2;847;1977;1943;-3205;1528;200;214
430257;2;18;2;847;1941;1948;-3228;1728;580;64
430267;2;18;2;847;1928;1980;-3208;1416;662;53
430277;2;18;2;847;1987;1979;-3210;800;618;64
430287;2;18;2;847;2094;2043;-3260;362;768;-56
430297;2;18;2;847;2125;2151;-3198;233;917;-194
430307;2;18;2;847;2147;2213;-3079;177;894;-266
430317;2;18;2;847;2135;2250;-3053;147;694;-239
430327;2;18;2;847;2090;2253;-3092;216;639;-200
430337;2;18;2;847;2019;2239;-3111;305;750;-249
430347;2;18;2;847;1958;2277;-3087;267;823;-195
430357;2;18;2;847;1971;2249;-3064;184;797;-76
430367;2;18;2;847;1980;2220;-3096;173;760;76
430377;2;18;2;847;2033;2159;-3128;209;744;189
430387;2;18;2;847;2103;2092;-3222;215;767;237
430397;2;18;2;847;2144;2017;-3262;15;866;145
430407;2;18;2;847;2149;1985;-3201;-345;925;37
430417;2;18;2;847;2167;1971;-3081;-733;922;-10
