timestamp;subject_id;activity;label;seq;ax;ay;az;gx;gy;gz
589927;2;18;2;1167;213;4001;-409;145;-1301;-125
589937;2;18;2;1167;190;4019;-387;200;-1252;-138
589947;2;18;2;1167;153;4076;-368;314;-1255;-139
589957;2;18;2;1167;205;4094;-345;440;-1341;-103
589967;2;18;2;1167;205;4147;-467;555;-1302;-93
589977;2;18;2;1167;171;4173;-551;528;-1163;-113
589987;2;18;2;1167;156;4187;-547;304;-1020;-190
589997;2;18;2;1167;120;4225;-485;-64;-1017;-184
590007;2;18;2;1167;121;4227;-355;-324;-1143;-152
590017;2;18;2;1167;102;4205;-306;-366;-1291;-135
590027;2;18;2;1167;102;4193;-340;-266;-1423;-88
590037;2;18;2;1167;111;4144;-430;-200;-1442;-37
590047;2;18;2;1167;142;4074;-462;-161;-1380;-54
590057;2;18;2;1167;179;4085;-408;-74;-1364;-52
590067;2;18;2;1167;212;4089;-361;-52;-1380;-96
590077;2;18;2;1167;227;4110;-340;-92;-1477;-110
590087;2;18;2;1167;227;4124;-416;-123;-1643;-113
590097;2;18;2;1167;173;4130;-438;-108;-1859;-6
590107;2;18;2;1167;169;4080;-479;-13;-2082;163
590117;2;18;2;1167;178;4048;-445;158;-2191;248
590127;2;18;2;1167;231;4022;-435;336;-2272;252
590137;2;18;2;1167;225;4045;-365;353;-2419;335
590147;2;18;2;1167;227;4006;-296;337;-2665;382
590157;2;18;2;1167;185;3976;-271;321;-2936;447
590167;2;18;2;1167;201;3882;-231;309;-3159;447
590177;2;18;2;1167;244;3814;-231;318;-3236;345
590187;2;18;2;1167;250;3748;-215;6;-3255;199
590197;2;18;2;1167;260;3866;-246;-334;-3144;-191
590207;2;18;2;1167;286;3933;-179;-304;-2808;-330
590217;2;18;2;1167;241;4018;-264;265;-2282;-426
590227;2;18;2;1167;176;3957;-333;1153;-1381;-316
590237;2;18;2;1167;120;3871;-161;1917;-93;-335
590247;2;18;2;1167;175;4008;143;2283;719;-418
590257;2;18;2;1167;148;4157;442;2160;747;-243
590267;2;18;2;1167;106;4288;499;1942;346;60
590277;2;18;2;1167;69;4368;375;2058;-98;244
590287;2;18;2;1167;-40;4437;109;2516;-167;473
590297;2;18;2;1167;-208;4399;-134;2862;67;745
590307;2;18;2;1167;-244;4301;-463;2777;383;852
590317;2;18;2;1167;-275;4299;-754;2235;684;907
590327;2;18;2;1167;-156;4237;-981;1287;842;1140
590337;2;18;2;1167;50;4118;-1267;52;935;1255
590347;2;18;2;1167;171;4154;-1574;-1315;1266;1282
590357;2;18;2;1167;185;4131;-1666;-2629;1816;1395
590367;2;18;2;1167;281;4058;-1443;-3619;2248;1524
590377;2;18;2;1167;337;3970;-1040;-4618;2235;1637
590387;2;18;2;1167;313;4050;-747;-5604;1889;1715
590397;2;18;2;1167;406;4059;-549;-6464;1536;1688
590407;2;18;2;1167;567;4175;-226;-7118;1280;1368
590417;2;18;2;1167;700;4386;78;-7471;1123;878
590427;2;18;2;1168;798;4445;548;-7337;1196;369
590437;2;18;2;1168;783;4508;1019;-6512;1229;62
590447;2;18;2;1168;708;4518;1369;-5055;853;-19
590457;2;18;2;1168;619;4388;1751;-3373;195;130
590467;2;18;2;1168;427;4293;1868;-1517;-487;342
590477;2;18;2;1168;289;4151;1467;-123;-1060;704
590487;2;18;2;1168;262;3957;923;126;-1561;952
590497;2;18;2;1168;221;3872;422;-256;-1728;1203
590507;2;18;2;1168;273;3751;121;-843;-1569;1300
590517;2;18;2;1168;299;3795;6;-1288;-1141;1286
590527;2;18;2;1168;285;3868;14;-1454;-535;1229
590537;2;18;2;1168;215;3893;58;-1357;68;1172
590547;2;18;2;1168;101;4020;136;-1060;663;1062
590557;2;18;2;1168;34;4149;185;-698;1172;928
590567;2;18;2;1168;-57;4188;254;-508;1606;928
590577;2;18;2;1168;-93;4185;394;-416;2032;960
590587;2;18;2;1168;-109;4222;592;-253;2402;1033
590597;2;18;2;1168;1;4177;806;-7;2635;1150
590607;2;18;2;1168;175;4112;960;309;2625;1241
590617;2;18;2;1168;490;4082;1031;602;2261;1227
590627;2;18;2;1168;948;4259;1068;1022;1899;992
590637;2;18;2;1168;1077;4498;1121;1413;1896;627
590647;2;18;2;1168;894;4528;1078;1338;1456;466
590657;2;18;2;1168;531;4345;675;611;128;556
590667;2;18;2;1168;162;4212;166;-663;-1550;941
590677;2;18;2;1168;-64;4378;-190;-1616;-2920;1429
590687;2;18;2;1168;-35;4436;-410;-1498;-3339;1876
590697;2;18;2;1168;123;4398;-745;-724;-2520;2099
590707;2;18;2;1168;406;4073;-876;-262;-682;2019
590717;2;18;2;1168;774;3808;-716;-358;1413;1301
590727;2;18;2;1168;1174;3820;-74;-600;3057;395
590737;2;18;2;1168;1340;4195;691;-637;3717;-285
590747;2;18;2;1168;1322;4396;1169;-480;3365;-516
590757;2;18;2;1168;1267;4409;1375;-190;2082;-525
590767;2;18;2;1168;1067;4520;1202;329;459;-373
590777;2;18;2;1168;858;4753;794;1091;-740;-13
590787;2;18;2;1168;759;4810;420;2102;-1385;433
590797;2;18;2;1168;631;4812;-47;2969;-1834;859
590807;2;18;2;1168;571;4651;-462;3504;-1941;1188
590817;2;18;2;1168;663;4370;-790;3466;-1835;1339
590827;2;18;2;1168;809;4147;-1159;2923;-1704;1195
590837;2;18;2;1168;860;4098;-1535;2014;-1411;1126
590847;2;18;2;1168;862;3932;-1782;982;-866;1259
590857;2;18;2;1168;970;3445;-1762;39;-150;1277
590867;2;18;2;1168;991;3254;-1538;-1023;432;1165
590877;2;18;2;1168;1083;3247;-1120;-2444;667;1200
590887;2;18;2;1168;1260;3276;-601;-3831;534;1220
590897;2;18;2;1168;1404;3366;-109;-4549;415;1153
590907;2;18;2;1168;1537;3572;366;-4048;461;989
590917;2;18;2;1168;1629;3676;706;-2598;478;864
590927;2;18;2;1169;1793;3737;798;-841;334;586
590937;2;18;2;1169;1832;3884;567;581;122;379
590947;2;18;2;1169;1807;3884;-67;1417;220;263
590957;2;18;2;1169;1697;3907;-673;1772;863;42
590967;2;18;2;1169;1588;3874;-1095;1744;1884;-90
590977;2;18;2;1169;1440;3801;-1170;1362;2831;-121
590987;2;18;2;1169;1332;3800;-993;593;3470;-87
590997;2;18;2;1169;1338;3795;-586;-385;3609;56
591007;2;18;2;1169;1390;3726;-113;-1162;3357;176
591017;2;18;2;1169;1443;3679;280;-1435;2999;118
591027;2;18;2;1169;1479;3765;625;-987;2764;-55
591037;2;18;2;1169;1577;3874;893;4;2544;-227
591047;2;18;2;1169;1596;3927;953;953;2112;-273
591057;2;18;2;1169;1654;3893;764;1551;1510;-326
591067;2;18;2;1169;1672;3854;498;1707;1000;-446
591077;2;18;2;1169;1613;3926;-95;1591;913;-632
591087;2;18;2;1169;1449;4087;-650;1397;1613;-722
591097;2;18;2;1169;1452;3975;-843;1249;2624;-776
591107;2;18;2;1169;1378;3984;-786;952;3472;-881
591117;2;18;2;1169;1335;4065;-490;261;3624;-753
591127;2;18;2;1169;1304;4086;-33;-647;3301;-444
591137;2;18;2;1169;1329;3984;476;-1231;2665;-168
591147;2;18;2;1169;1370;4015;872;-1291;1864;18
591157;2;18;2;1169;1422;4043;1072;-1090;961;266
591167;2;18;2;1169;1509;3954;1120;-957;-89;499
591177;2;18;2;1169;1491;3925;1010;-959;-1110;686
591187;2;18;2;1169;1534;3832;827;-885;-1755;825
591197;2;18;2;1169;1621;3705;501;-700;-2024;637
591207;2;18;2;1169;1576;3804;-173;-607;-1511;415
591217;2;18;2;1169;1523;3761;-804;-523;-177;161
591227;2;18;2;1169;1591;3625;-1159;-502;1898;-261
591237;2;18;2;1169;1528;3745;-857;-817;3621;-753
591247;2;18;2;1169;1416;3920;-298;-1322;4469;-926
591257;2;18;2;1169;1237;4038;355;-1613;4577;-951
591267;2;18;2;1169;1064;4192;928;-1275;3948;-780
591277;2;18;2;1169;961;4327;1074;-441;2918;-430
591287;2;18;2;1169;984;4446;906;293;1849;-21
591297;2;18;2;1169;1089;4517;749;769;837;235
591307;2;18;2;1169;1071;4674;479;1106;-211;298
591317;2;18;2;1169;1022;4542;100;1118;-1437;572
591327;2;18;2;1169;958;4463;-303;770;-3008;576
591337;2;18;2;1169;809;4627;-1033;748;-3927;649
591347;2;18;2;1169;692;4465;-1866;1170;-3486;750
591357;2;18;2;1169;685;4152;-2487;1645;-1893;660
591367;2;18;2;1169;837;3594;-2628;1639;154;439
591377;2;18;2;1169;1067;3200;-2433;294;1945;-115
591387;2;18;2;1169;1318;3245;-1587;-2116;3234;-482
591397;2;18;2;1169;1769;3482;598;-3156;4399;-1189
591407;2;18;2;1169;1657;4088;2529;450;4889;-1769
591417;2;18;2;1169;1420;4018;1738;2636;3248;-1488
591427;2;18;2;1170;1227;3748;968;1550;1071;-954
591437;2;18;2;1170;904;3767;353;517;35;-550
591447;2;18;2;1170;583;3859;-179;803;217;-169
591457;2;18;2;1170;411;3854;-565;1545;644;255
591467;2;18;2;1170;539;3780;-1049;1989;1152;483
591477;2;18;2;1170;731;3775;-1490;2100;2030;306
591487;2;18;2;1170;894;3770;-1562;1944;3145;-57
591497;2;18;2;1170;977;3799;-1335;1910;4031;-577
591507;2;18;2;1170;996;3885;-969;2170;4637;-988
591517;2;18;2;1170;909;4032;-667;2645;5088;-1424
591527;2;18;2;1170;812;4144;-510;3130;5507;-1741
591537;2;18;2;1170;820;4250;-361;3416;5762;-1868
591547;2;18;2;1170;836;4287;-300;3358;5740;-1802
591557;2;18;2;1170;805;4389;-294;2760;5510;-1754
591567;2;18;2;1170;747;4640;-233;2165;5249;-1610
591577;2;18;2;1170;723;4699;-367;1909;5124;-1335
591587;2;18;2;1170;617;4645;-571;2008;5382;-1176
591597;2;18;2;1170;551;4401;-897;2318;6064;-1045
591607;2;18;2;1170;489;4197;-1096;2341;6831;-1032
591617;2;18;2;1170;492;3980;-1222;1944;7623;-1028
591627;2;18;2;1170;484;3909;-1147;1491;8487;-1105
591637;2;18;2;1170;513;3875;-820;1279;9175;-1080
591647;2;18;2;1170;513;3985;-493;1473;9510;-1058
591657;2;18;2;1170;545;4100;-316;1869;9535;-932
591667;2;18;2;1170;598;4045;-404;2134;9329;-736
591677;2;18;2;1170;621;3928;-617;1995;8949;-585
591687;2;18;2;1170;550;3896;-864;1550;8701;-419
591697;2;18;2;1170;503;3826;-1027;1189;8711;-195
591707;2;18;2;1170;524;3769;-1087;972;8856;-4
591717;2;18;2;1170;519;3760;-1016;792;9048;204
591727;2;18;2;1170;549;3708;-939;699;9137;502
591737;2;18;2;1170;549;3586;-804;837;9172;813
591747;2;18;2;1170;592;3505;-707;1184;9184;1143
591757;2;18;2;1170;707;3416;-616;1556;9279;1490
591767;2;18;2;1170;1014;3529;-457;1721;9394;1692
591777;2;18;2;1170;1238;3849;-356;1836;9330;1756
591787;2;18;2;1170;1493;4002;-451;2037;8887;1803
591797;2;18;2;1170;1216;4080;-743;2074;8709;2138
591807;2;18;2;1170;1095;4100;-887;2400;8763;2134
591817;2;18;2;1170;897;4438;-949;3278;9062;2280
591827;2;18;2;1170;829;4613;-1053;3965;9251;2773
591837;2;18;2;1170;875;4795;-1198;4312;9244;3247
591847;2;18;2;1170;1053;4806;-1398;4135;9024;3630
591857;2;18;2;1170;1280;4763;-1619;3730;8741;3736
591867;2;18;2;1170;1633;4758;-1782;3408;8361;3604
591877;2;18;2;1170;1722;4736;-2101;3354;8190;3375
591887;2;18;2;1170;1772;4462;-2254;3143;8331;2955
591897;2;18;2;1170;1662;4115;-1926;2661;8190;2306
591907;2;18;2;1170;1429;3885;-1555;1758;7565;1880
591917;2;18;2;1170;1160;3710;-1164;759;6959;1554
591927;2;18;2;1171;895;3584;-491;788;7052;1295
591937;2;18;2;1171;784;3511;651;3469;8103;876
591947;2;18;2;1171;798;3423;451;6198;8701;545
591957;2;18;2;1171;1186;2979;8;5892;8157;378
591967;2;18;2;1171;1459;2766;-217;4405;7177;178
591977;2;18;2;1171;1507;2825;-458;3541;6594;-144
591987;2;18;2;1171;1477;3068;-384;3757;6627;-649
591997;2;18;2;1171;1478;3315;-168;4611;6928;-1073
592007;2;18;2;1171;1558;3413;-47;5293;7094;-1495
592017;2;18;2;1171;1634;3534;-33;5534;7010;-2019
592027;2;18;2;1171;1629;3775;-42;5438;6762;-2653
592037;2;18;2;1171;1666;3979;-21;5155;6441;-3138
592047;2;18;2;1171;1702;4194;-173;4333;5874;-3721
592057;2;18;2;1171;1691;4321;-245;3512;4823;-4029
592067;2;18;2;1171;1197;4767;-459;2312;3853;-3992
592077;2;18;2;1171;1123;4662;-864;1437;3061;-3848
592087;2;18;2;1171;952;4654;-976;489;2509;-3636
592097;2;18;2;1171;912;4589;-1121;-684;2000;-3438
592107;2;18;2;1171;746;4554;-1025;-1567;1764;-3233
592117;2;18;2;1171;593;4332;-824;-1829;1785;-2979
592127;2;18;2;1171;643;4058;-511;-1361;1900;-2854
592137;2;18;2;1171;861;3765;-90;-637;1801;-2673
592147;2;18;2;1171;1045;3593;180;-376;1269;-2538
592157;2;18;2;1171;1308;3607;274;-823;416;-2424
592167;2;18;2;1171;1528;3598;265;-1243;-523;-2338
592177;2;18;2;1171;1642;3684;20;-1305;-1365;-2353
592187;2;18;2;1171;1556;3759;-134;-1394;-2019;-2330
592197;2;18;2;1171;1454;3776;-169;-1638;-2687;-2251
592207;2;18;2;1171;1347;3842;-185;-1826;-3424;-2040
592217;2;18;2;1171;1326;3912;-265;-1881;-4156;-1838
592227;2;18;2;1171;1117;4024;-464;-2001;-4756;-1430
592237;2;18;2;1171;1132;3948;-617;-2169;-5209;-1051
592247;2;18;2;1171;1098;3988;-774;-2374;-5525;-745
592257;2;18;2;1171;1063;3888;-919;-2406;-5609;-432
592267;2;18;2;1171;1119;3806;-1023;-1970;-5169;-459
592277;2;18;2;1171;1256;3788;-1197;-1475;-4799;-605
592287;2;18;2;1171;1408;3686;-1140;-1462;-4717;-567
592297;2;18;2;1171;1516;3653;-1096;-1907;-4761;-791
592307;2;18;2;1171;1570;3664;-885;-2199;-4944;-913
592317;2;18;2;1171;1521;3651;-895;-2219;-5147;-1114
592327;2;18;2;1171;1390;3726;-881;-2154;-5139;-1308
592337;2;18;2;1171;1258;3753;-782;-1861;-5091;-1449
592347;2;18;2;1171;1095;3803;-591;-1415;-5147;-1524
592357;2;18;2;1171;946;3838;-479;-863;-5348;-1610
592367;2;18;2;1171;775;3866;-476;-242;-5545;-1701
592377;2;18;2;1171;704;3824;-518;291;-5777;-1771
592387;2;18;2;1171;702;3789;-640;676;-5979;-1867
592397;2;18;2;1171;660;3877;-805;1052;-5910;-1919
592407;2;18;2;1171;732;3884;-844;1625;-5505;-1975
592417;2;18;2;1171;766;3969;-719;2224;-5114;-2093
592427;2;18;2;1172;712;4139;-600;2453;-5066;-2154
592437;2;18;2;1172;613;4327;-599;2085;-5388;-2077
592447;2;18;2;1172;387;4565;-662;992;-6008;-1943
592457;2;18;2;1172;122;4958;-744;-303;-6733;-1738
592467;2;18;2;1172;-151;5335;-951;-1489;-7263;-1417
592477;2;18;2;1172;-161;5458;-1025;-1626;-7404;-1176
592487;2;18;2;1172;-157;5346;-1085;-783;-7539;-935
592497;2;18;2;1172;-123;5059;-1473;460;-7447;-578
592507;2;18;2;1172;95;4470;-1636;1178;-6702;-154
592517;2;18;2;1172;238;3853;-1391;620;-5829;-99
592527;2;18;2;1172;274;3581;-728;-275;-4908;-287
592537;2;18;2;1172;311;3612;184;-773;-4260;-393
592547;2;18;2;1172;359;3727;397;-878;-4362;-339
592557;2;18;2;1172;421;3736;277;-929;-4450;-120
592567;2;18;2;1172;367;3866;-36;-372;-4203;-61
592577;2;18;2;1172;203;3997;-351;443;-3769;41
592587;2;18;2;1172;36;4019;-623;757;-3432;237
592597;2;18;2;1172;-60;4021;-921;379;-3180;347
592607;2;18;2;1172;-27;4088;-1013;-5;-2989;385
592617;2;18;2;1172;2;4101;-1064;66;-2897;410
592627;2;18;2;1172;-32;4101;-1105;347;-2791;226
592637;2;18;2;1172;-276;3999;-1100;526;-2598;165
592647;2;18;2;1172;-435;3856;-969;447;-2410;204
592657;2;18;2;1172;-530;3667;-829;259;-2197;259
592667;2;18;2;1172;-425;3528;-751;232;-1881;211
592677;2;18;2;1172;-213;3644;-693;309;-1668;127
592687;2;18;2;1172;5;3637;-569;544;-1625;314
592697;2;18;2;1172;86;3596;-546;926;-1588;395
592707;2;18;2;1172;43;3666;-673;1129;-1486;414
592717;2;18;2;1172;-102;3611;-973;907;-1338;517
592727;2;18;2;1172;-191;3496;-1091;837;-1109;581
592737;2;18;2;1172;-99;3446;-1253;1075;-1011;684
592747;2;18;2;1172;-75;3452;-1399;1008;-854;778
592757;2;18;2;1172;-46;3501;-1349;480;-605;743
592767;2;18;2;1172;-77;3492;-1090;-24;-307;742
592777;2;18;2;1172;-95;3429;-812;-88;-48;712
592787;2;18;2;1172;-126;3346;-789;62;230;745
592797;2;18;2;1172;-97;3269;-739;85;530;696
592807;2;18;2;1172;-41;3359;-599;90;646;588
592817;2;18;2;1172;-36;3507;-591;480;777;520
592827;2;18;2;1172;-86;3535;-723;1034;897;510
592837;2;18;2;1172;-71;3533;-970;1377;1008;425
592847;2;18;2;1172;-196;3600;-1203;1411;1181;338
592857;2;18;2;1172;-212;3575;-1220;1549;1047;315
592867;2;18;2;1172;-170;3567;-1227;1639;505;379
592877;2;18;2;1172;-132;3515;-1317;1425;-102;443
592887;2;18;2;1172;-205;3412;-1482;1136;-544;437
592897;2;18;2;1172;-386;3162;-1657;874;-552;365
592907;2;18;2;1172;-481;2808;-1560;594;-240;284
592917;2;18;2;1172;-565;2405;-1376;151;165;224
592927;2;18;2;1173;-580;2030;-891;-375;549;122
592937;2;18;2;1173;-487;1520;-75;-283;1284;46
592947;2;18;2;1173;-664;1328;871;1134;1822;251
592957;2;18;2;1173;-671;775;1087;2510;1243;960
592967;2;18;2;1173;-324;183;728;2375;-54;1520
592977;2;18;2;1173;-16;116;149;1316;-1141;1871
592987;2;18;2;1173;566;-375;-513;756;-1429;2049
592997;2;18;2;1173;865;-329;-766;113;-1382;1912
593007;2;18;2;1173;1103;-651;-791;288;-1183;1622
593017;2;18;2;1173;817;-428;-464;740;-843;1319
593027;2;18;2;1173;606;-44;-225;1852;-398;1076
593037;2;18;2;1173;615;312;-90;2548;52;805
593047;2;18;2;1173;649;934;135;2734;160;614
593057;2;18;2;1173;867;1463;288;2756;-452;431
593067;2;18;2;1173;1249;2000;-76;2542;-1187;38
593077;2;18;2;1173;1562;2351;-415;1926;-1649;-583
593087;2;18;2;1173;1436;2452;-833;1582;-1938;-1213
593097;2;18;2;1173;835;2731;-1298;1560;-2359;-1156
593107;2;18;2;1173;189;3054;-1618;1492;-3284;170
593117;2;18;2;1173;-274;3370;-1857;1009;-4627;2432
593127;2;18;2;1173;-243;3641;-2014;-409;-5362;4063
593137;2;18;2;1173;566;3827;-1703;-1022;-4561;4578
593147;2;18;2;1173;1407;4076;-1162;-879;-3317;4047
593157;2;18;2;1173;1832;4127;-771;-887;-3345;3478
593167;2;18;2;1173;1676;4052;-1000;-626;-3967;3140
593177;2;18;2;1173;640;4226;-1566;-115;-4529;3138
593187;2;18;2;1173;-277;5120;-2239;694;-4580;3786
593197;2;18;2;1173;-674;5872;-2623;1385;-3951;4796
593207;2;18;2;1173;-191;6176;-2951;1188;-3152;5334
593217;2;18;2;1173;743;6611;-3265;-447;-1794;4843
593227;2;18;2;1173;1820;6134;-3280;-1781;-516;4016
593237;2;18;2;1173;2299;5819;-3314;-2943;480;2724
593247;2;18;2;1173;2096;5259;-2826;-3571;1755;1436
593257;2;18;2;1173;1003;5477;-1775;-3766;2146;784
593267;2;18;2;1173;57;5882;-1040;-3162;1164;1268
593277;2;18;2;1173;-593;6220;-1297;-1479;-381;2415
593287;2;18;2;1173;-1012;6517;-2436;-859;-1813;3622
593297;2;18;2;1173;-806;6836;-3542;-733;-2706;4630
593307;2;18;2;1173;83;6328;-4668;254;-2799;5239
593317;2;18;2;1173;944;5980;-5664;48;-2205;4871
593327;2;18;2;1173;1883;5376;-6024;-1991;-393;4330
593337;2;18;2;1173;1892;5164;-5249;-5440;2565;3282
593347;2;18;2;1173;1354;5024;-3375;-7968;4822;2187
593357;2;18;2;1173;871;4946;-1841;-8214;5295;1742
593367;2;18;2;1173;661;4899;-1278;-6709;3744;2141
593377;2;18;2;1173;-67;5353;-1587;-4218;974;3203
593387;2;18;2;1173;-564;5587;-2725;-2196;-1072;3905
593397;2;18;2;1173;-919;6112;-3367;-2195;-1020;3805
593407;2;18;2;1173;-853;6772;-3353;-2085;190;3212
593417;2;18;2;1173;-69;6320;-3976;-1877;1374;3113
593427;2;18;2;1174;1792;5193;-4344;-4427;4182;2001
593437;2;18;2;1174;3150;5465;-2462;-8628;6832;296
593447;2;18;2;1174;3862;5361;-575;-10248;6305;-492
593457;2;18;2;1174;4151;4814;45;-7454;4486;-1404
593467;2;18;2;1174;3444;4330;-639;-1835;1918;-2076
593477;2;18;2;1174;1502;3507;-2214;3316;-1101;-2120
593487;2;18;2;1174;-671;2985;-4295;5515;-3477;-524
593497;2;18;2;1174;-1744;2672;-6370;4058;-3964;1846
593507;2;18;2;1174;-1314;2608;-7792;-585;-1649;3709
593517;2;18;2;1174;1133;2010;-7393;-6939;3594;3476
593527;2;18;2;1174;3123;1832;-4141;-12415;7923;1293
593537;2;18;2;1174;3884;1380;-1368;-13946;7470;-471
593547;2;18;2;1174;3796;247;-3;-12338;4797;-2055
593557;2;18;2;1174;2608;-786;665;-9371;2873;-3681
593567;2;18;2;1174;401;-942;1217;-6569;1922;-4366
593577;2;18;2;1174;-1726;164;1738;-4664;1258;-3018
593587;2;18;2;1174;-2073;2584;1498;-3888;1555;-397
593597;2;18;2;1174;177;6426;951;-5465;4214;1639
593607;2;18;2;1174;3767;10657;1812;-8311;8332;2397
593617;2;18;2;1174;8710;13512;3111;-12330;9028;836
593627;2;18;2;1174;11212;12134;2274;-12586;6033;1524
593637;2;18;2;1174;10123;8530;2142;-12158;6438;-711
593647;2;18;2;1174;6259;4506;7071;-11911;9626;-2666
593657;2;18;2;1174;1948;1649;10490;-8359;12785;-3612
593667;2;18;2;1174;-659;-473;7648;-13381;13013;-1753
593677;2;18;2;1174;-1252;-1998;4999;-14541;10723;2521
593687;2;18;2;1174;-983;-2987;2530;-10007;10690;5086
593697;2;18;2;1174;-823;-1666;1132;-7498;10977;4740
593707;2;18;2;1174;-417;-214;1563;-8423;9847;4394
593717;2;18;2;1174;-78;1318;2775;-9808;8066;3159
593727;2;18;2;1174;-220;2708;3370;-10122;6643;1388
593737;2;18;2;1174;-93;2881;4407;-10199;5238;343
593747;2;18;2;1174;430;2362;5668;-10676;4056;-638
593757;2;18;2;1174;884;1636;5814;-11610;3076;-1516
593767;2;18;2;1174;778;865;5083;-12482;2345;-1774
593777;2;18;2;1174;521;120;4361;-12815;1558;-1426
593787;2;18;2;1174;333;151;4064;-12641;449;-1109
593797;2;18;2;1174;227;917;4484;-12114;-597;-160
593807;2;18;2;1174;557;1511;3892;-12102;-1552;1245
593817;2;18;2;1174;1019;2170;3930;-12883;-2197;2266
593827;2;18;2;1174;1314;2550;4038;-13117;-2711;2745
593837;2;18;2;1174;1752;2381;3788;-12474;-2905;2498
593847;2;18;2;1174;2098;1820;3790;-12039;-2404;1786
593857;2;18;2;1174;2005;1547;3586;-12143;-1890;846
593867;2;18;2;1174;1935;1022;3195;-12710;-1642;544
593877;2;18;2;1174;1912;569;3471;-13006;-1869;443
593887;2;18;2;1174;1656;562;4022;-12620;-2056;320
593897;2;18;2;1174;1459;675;4158;-11855;-2150;274
593907;2;18;2;1174;1724;826;4681;-11100;-1656;460
593917;2;18;2;1174;1965;1524;5654;-10006;-892;809
593927;2;18;2;1175;2268;1926;5898;-8676;-95;1147
593937;2;18;2;1175;2862;2311;6033;-7891;1243;995
593947;2;18;2;1175;2969;2576;5701;-7755;1887;453
593957;2;18;2;1175;2788;2136;4906;-8188;1219;814
593967;2;18;2;1175;2349;1224;4213;-8934;634;1521
593977;2;18;2;1175;1924;240;3682;-10117;879;2448
593987;2;18;2;1175;1943;-793;4154;-11519;2307;3251
593997;2;18;2;1175;2102;-1592;5723;-11360;4133;3848
594007;2;18;2;1175;1789;-2030;6471;-7777;5197;4435
594017;2;18;2;1175;1349;-2081;6154;-4865;5790;4766
594027;2;18;2;1175;578;-1919;4823;-3206;4898;4715
594037;2;18;2;1175;-106;-1954;3382;-3484;2921;3945
594047;2;18;2;1175;-779;-1690;2729;-3841;1958;2415
594057;2;18;2;1175;-1597;-1605;2862;-2547;2159;399
594067;2;18;2;1175;-2047;-1129;3431;588;1267;-1083
594077;2;18;2;1175;-1457;-632;3577;3991;-262;-1661
594087;2;18;2;1175;-620;261;3407;5162;-670;-1905
594097;2;18;2;1175;662;1098;3697;4239;143;-1844
594107;2;18;2;1175;2361;1768;4640;3299;996;-2384
594117;2;18;2;1175;3061;2619;5018;3425;1503;-2717
594127;2;18;2;1175;3192;2405;4859;2458;1494;-2228
594137;2;18;2;1175;2626;2074;4579;80;1063;-2290
594147;2;18;2;1175;1805;1744;4374;-1687;468;-2035
594157;2;18;2;1175;1219;1144;3961;-2017;30;-1552
594167;2;18;2;1175;783;669;3851;-910;156;-1305
594177;2;18;2;1175;575;250;3694;418;900;-1285
594187;2;18;2;1175;629;-22;4040;993;1759;-1516
594197;2;18;2;1175;763;69;4458;1388;2357;-1728
594207;2;18;2;1175;990;224;4850;926;2428;-1615
594217;2;18;2;1175;991;575;4816;136;2310;-1785
594227;2;18;2;1175;905;995;4742;-651;2133;-1263
594237;2;18;2;1175;663;1343;4557;-1180;1963;-407
594247;2;18;2;1175;664;1287;4388;-1904;1595;391
594257;2;18;2;1175;720;852;4322;-3039;1194;424
594267;2;18;2;1175;493;560;4265;-4010;602;42
594277;2;18;2;1175;179;339;4228;-4150;-271;-51
594287;2;18;2;1175;-1;64;4073;-3593;-1176;-21
594297;2;18;2;1175;-110;-3;4016;-2722;-1869;-2
594307;2;18;2;1175;-51;97;4013;-1533;-2038;145
594317;2;18;2;1175;271;126;3886;-422;-1583;520
594327;2;18;2;1175;594;-45;3709;71;-861;661
594337;2;18;2;1175;754;-114;3629;-1;-265;316
594347;2;18;2;1175;832;-109;3620;-404;190;-125
594357;2;18;2;1175;806;-135;3681;-546;415;-483
594367;2;18;2;1175;693;-107;3756;-53;354;-652
594377;2;18;2;1175;556;-172;3768;690;8;-628
594387;2;18;2;1175;479;-229;4070;1429;-508;-550
594397;2;18;2;1175;377;-144;4522;2310;-1230;-345
594407;2;18;2;1175;335;69;4555;2785;-1773;-1
594417;2;18;2;1175;474;219;4277;2280;-1794;172
594427;2;18;2;1176;737;244;4093;1580;-1198;78
594437;2;18;2;1176;1046;274;4201;1822;-479;-126
594447;2;18;2;1176;1247;354;4131;2864;21;-342
594457;2;18;2;1176;1406;366;3901;3213;195;-549
594467;2;18;2;1176;1412;333;3753;2787;183;-806
594477;2;18;2;1176;1341;362;3875;2438;35;-925
594487;2;18;2;1176;1247;462;3964;2409;-158;-726
594497;2;18;2;1176;1122;631;3928;2420;-242;-523
594507;2;18;2;1176;933;834;4033;2128;-275;-235
594517;2;18;2;1176;889;958;4479;1767;-710;235
594527;2;18;2;1176;1080;1023;4602;1494;-1356;591
594537;2;18;2;1176;1287;1088;4199;1171;-1525;730
594547;2;18;2;1176;1476;1073;3862;791;-1056;481
594557;2;18;2;1176;1505;1170;3667;352;-526;84
594567;2;18;2;1176;1430;1336;3650;-29;-441;-159
594577;2;18;2;1176;1401;1387;3656;-331;-952;-149
594587;2;18;2;1176;1417;1371;3508;-935;-1606;-109
594597;2;18;2;1176;1355;1325;3581;-1658;-2005;-169
594607;2;18;2;1176;1255;1426;3864;-2074;-2133;-244
594617;2;18;2;1176;1267;1421;4264;-2249;-1912;-343
594627;2;18;2;1176;1251;1341;4464;-2340;-1373;-506
594637;2;18;2;1176;1317;1092;4240;-2009;-745;-713
594647;2;18;2;1176;1423;607;3725;-1323;-411;-944
594657;2;18;2;1176;1402;395;3176;-1044;-367;-1289
594667;2;18;2;1176;1247;759;3151;-944;-338;-838
594677;2;18;2;1176;1469;641;3630;-993;-155;-207
594687;2;18;2;1176;1418;800;4508;-1262;355;-305
594697;2;18;2;1176;1398;944;4962;-868;928;-444
594707;2;18;2;1176;1414;830;4532;253;1434;-434
594717;2;18;2;1176;1365;673;4067;1283;1528;-262
594727;2;18;2;1176;1359;487;3705;1832;1369;-1
594737;2;18;2;1176;1195;473;3601;1475;1523;107
594747;2;18;2;1176;974;561;4033;665;2118;-32
594757;2;18;2;1176;674;749;4877;-281;2772;-216
594767;2;18;2;1176;551;848;5279;-168;2665;-68
594777;2;18;2;1176;837;555;4724;889;2055;210
594787;2;18;2;1176;929;276;3730;1890;1520;201
594797;2;18;2;1176;836;167;3209;2089;1027;-143
594807;2;18;2;1176;506;28;3253;1186;676;-435
594817;2;18;2;1176;39;-227;3787;26;276;-851
594827;2;18;2;1176;-477;-422;4907;-931;-207;-858
594837;2;18;2;1176;-769;-587;6007;-93;-1047;-375
594847;2;18;2;1176;-298;-904;5786;2581;-1808;232
594857;2;18;2;1176;184;-841;4728;5021;-2159;618
594867;2;18;2;1176;658;-614;3926;6344;-2496;1220
594877;2;18;2;1176;1238;-559;3828;6794;-3073;1630
594887;2;18;2;1176;1611;-96;4491;7202;-3762;1514
594897;2;18;2;1176;1734;682;5035;7936;-4511;1516
594907;2;18;2;1176;1823;1064;4909;8689;-4279;1523
594917;2;18;2;1176;1742;1499;4789;9007;-3202;1040
594927;2;18;2;1177;1723;2003;4857;8543;-2318;556
594937;2;18;2;1177;1674;2162;4531;7659;-1752;-38
594947;2;18;2;1177;1446;2085;4224;6915;-1551;-815
594957;2;18;2;1177;1169;2023;4048;6211;-1933;-1359
594967;2;18;2;1177;915;2048;3780;5615;-2525;-1627
594977;2;18;2;1177;832;1799;3522;5392;-2952;-1679
594987;2;18;2;1177;932;1446;3325;5204;-3395;-1785
594997;2;18;2;1177;1138;1359;3487;4831;-4032;-1820
595007;2;18;2;1177;1493;1402;4021;4654;-4763;-1799
595017;2;18;2;1177;1711;1508;4601;5134;-5439;-1825
595027;2;18;2;1177;1715;1325;4317;6086;-5478;-1890
595037;2;18;2;1177;1609;1215;3686;6879;-4786;-2077
595047;2;18;2;1177;1488;1360;3346;7399;-3933;-2045
595057;2;18;2;1177;1369;1474;3141;7890;-3279;-1823
595067;2;18;2;1177;1279;1676;3003;8125;-3164;-1677
595077;2;18;2;1177;1149;1976;2970;7831;-3639;-1181
595087;2;18;2;1177;1167;2106;2984;7117;-4533;-571
595097;2;18;2;1177;1147;2138;3030;6285;-5564;-172
595107;2;18;2;1177;1260;2334;3033;5547;-6279;199
595117;2;18;2;1177;1509;2521;3187;5620;-6492;41
595127;2;18;2;1177;1720;2778;3238;6214;-6187;-415
595137;2;18;2;1177;1817;3005;3165;6415;-5832;-878
595147;2;18;2;1177;1948;2994;3063;6139;-5676;-1325
595157;2;18;2;1177;2085;2975;3039;6144;-5524;-2033
595167;2;18;2;1177;2258;2918;3069;6830;-5554;-2812
595177;2;18;2;1177;2460;2859;2961;8336;-5377;-3991
595187;2;18;2;1177;2394;2956;2832;10237;-4998;-4948
595197;2;18;2;1177;2221;2883;2792;12149;-4861;-5315
595207;2;18;2;1177;1988;2697;2659;13633;-5176;-5264
595217;2;18;2;1177;1740;2523;2402;14317;-5681;-4938
595227;2;18;2;1177;1415;2501;2075;14157;-6172;-4412
595237;2;18;2;1177;1247;2479;1690;13363;-6599;-3694
595247;2;18;2;1177;1266;2500;1377;12123;-6341;-3300
595257;2;18;2;1177;1149;2805;1217;10847;-5737;-3208
595267;2;18;2;1177;961;3097;1240;10135;-5212;-2877
595277;2;18;2;1177;1067;3041;1211;10181;-4974;-2491
595287;2;18;2;1177;1233;3008;968;10766;-4528;-2624
595297;2;18;2;1177;1299;3410;665;11251;-3915;-2780
595307;2;18;2;1177;1296;3840;432;11120;-3174;-2633
595317;2;18;2;1177;1147;4007;189;10627;-2418;-2316
595327;2;18;2;1177;1017;3786;20;10319;-1435;-2218
595337;2;18;2;1177;912;3631;-127;10406;-361;-2523
595347;2;18;2;1177;722;3667;-201;10915;326;-2609
595357;2;18;2;1177;528;3575;-526;11562;443;-2372
595367;2;18;2;1177;377;3480;-1186;11930;590;-1954
595377;2;18;2;1177;315;3314;-1962;11528;1291;-1409
595387;2;18;2;1177;606;3101;-2515;10103;2405;-1164
595397;2;18;2;1177;902;3273;-2575;7484;3633;-1305
595407;2;18;2;1177;968;3680;-1993;4087;3982;-1184
595417;2;18;2;1177;1106;3853;-1105;1182;3229;-727
595427;2;18;2;1178;1228;3920;-376;-40;2047;-251
595437;2;18;2;1178;1199;4111;179;719;947;-16
595447;2;18;2;1178;1003;4278;444;2647;100;140
595457;2;18;2;1178;895;4148;328;5647;-503;208
595467;2;18;2;1178;934;3928;-100;8934;-753;224
595477;2;18;2;1178;1186;3538;-846;11556;-946;454
595487;2;18;2;1178;1251;3443;-1386;11904;-1021;656
595497;2;18;2;1178;1356;3459;-1793;10491;-1240;980
595507;2;18;2;1178;1567;3525;-1866;7908;-1351;1316
595517;2;18;2;1178;1665;3922;-1566;4706;-1401;1473
595527;2;18;2;1178;1646;4493;-1012;1876;-1500;1601
595537;2;18;2;1178;1915;4598;19;631;-1611;1523
595547;2;18;2;1178;2186;4651;1219;2088;-1858;959
595557;2;18;2;1178;2401;4820;1978;5228;-2127;243
595567;2;18;2;1178;2362;4730;2954;9052;-2957;-401
595577;2;18;2;1178;2129;4353;2625;12578;-4287;-870
595587;2;18;2;1178;2049;4165;652;12615;-5019;-1065
595597;2;18;2;1178;2173;3987;-475;10308;-4992;-1057
595607;2;18;2;1178;2146;3627;-1079;9289;-4554;-1124
595617;2;18;2;1178;1995;3798;-1012;10443;-4446;-1159
595627;2;18;2;1178;1923;3128;-1600;12543;-4599;-1368
595637;2;18;2;1178;1663;2712;-2428;13606;-4372;-1825
595647;2;18;2;1178;1290;2479;-2915;12922;-3884;-1694
595657;2;18;2;1178;903;2159;-2980;11205;-3414;-1389
595667;2;18;2;1178;474;2231;-2852;9550;-2968;-999
595677;2;18;2;1178;506;1819;-2449;10099;-2532;-492
595687;2;18;2;1178;528;1589;-2548;10908;-2545;-201
595697;2;18;2;1178;668;1706;-2750;11198;-3049;198
595707;2;18;2;1178;862;2177;-3274;11107;-3762;867
595717;2;18;2;1178;1390;2573;-3813;11304;-3714;895
595727;2;18;2;1178;1834;3133;-4452;11065;-3080;927
595737;2;18;2;1178;2291;3564;-5196;10016;-2282;704
595747;2;18;2;1178;2719;3489;-6065;8086;-1192;132
595757;2;18;2;1178;3073;3207;-6439;6300;291;-556
595767;2;18;2;1178;3192;2754;-6167;5747;1676;-1075
595777;2;18;2;1178;3077;2463;-5713;5404;2029;-1370
595787;2;18;2;1178;2873;2089;-5503;4132;1454;-1720
595797;2;18;2;1178;2461;1711;-4737;1805;532;-2408
595807;2;18;2;1178;1402;1664;-3448;-234;-1462;-2264
595817;2;18;2;1178;571;1933;-3328;-861;-3446;-1902
595827;2;18;2;1178;178;2420;-3618;-578;-3734;-1343
595837;2;18;2;1178;379;2300;-3833;29;-2342;-792
595847;2;18;2;1178;786;1999;-3800;116;146;-600
595857;2;18;2;1178;1251;1867;-3344;-663;2501;-898
595867;2;18;2;1178;1530;2034;-2809;-1644;3696;-1137
595877;2;18;2;1178;1829;2275;-2604;-1946;3843;-1408
595887;2;18;2;1178;1811;2787;-2754;-1187;3814;-1505
595897;2;18;2;1178;1715;3036;-3119;58;3470;-1539
595907;2;18;2;1178;1540;2845;-3396;752;2819;-1363
595917;2;18;2;1178;1491;2128;-3699;912;1861;-1216
595927;2;18;2;1179;1262;1672;-3745;805;1025;-1019
595937;2;18;2;1179;839;1410;-3758;398;310;-610
595947;2;18;2;1179;658;1239;-3842;-163;244;-218
595957;2;18;2;1179;659;1236;-3780;-388;1022;-87
595967;2;18;2;1179;788;1447;-3466;-331;1803;28
595977;2;18;2;1179;899;1816;-3315;-289;2105;90
595987;2;18;2;1179;1146;2023;-3283;-183;2122;-21
595997;2;18;2;1179;1326;2102;-3274;305;2052;-210
596007;2;18;2;1179;1349;2221;-3476;1222;1920;-388
596017;2;18;2;1179;1405;2583;-3760;1915;1895;-552
596027;2;18;2;1179;1560;2805;-3953;2247;1854;-516
596037;2;18;2;1179;1691;2944;-3890;2244;1463;-413
596047;2;18;2;1179;1820;2946;-3855;2047;667;-122
596057;2;18;2;1179;1977;2866;-3878;1978;33;-4
596067;2;18;2;1179;1951;3040;-3917;2074;-262;-8
596077;2;18;2;1179;2302;2883;-3922;2104;-329;-439
596087;2;18;2;1179;2408;2872;-3801;1978;-227;-933
596097;2;18;2;1179;2248;2852;-3549;1672;-320;-1275
596107;2;18;2;1179;2081;2723;-3286;1394;-745;-1395
596117;2;18;2;1179;2045;2553;-3283;1465;-1320;-1207
596127;2;18;2;1179;1979;2503;-3358;1544;-1569;-923
596137;2;18;2;1179;1760;2641;-3286;1132;-1490;-501
596147;2;18;2;1179;1611;2855;-3053;469;-1411;-51
596157;2;18;2;1179;1484;3062;-2941;77;-1251;340
596167;2;18;2;1179;1364;3205;-2835;19;-879;625
596177;2;18;2;1179;1254;3258;-2649;400;-554;712
596187;2;18;2;1179;1280;3268;-2485;978;-535;955
596197;2;18;2;1179;1354;3196;-2366;1428;-1004;1236
596207;2;18;2;1179;1401;3078;-2326;1613;-1916;1624
596217;2;18;2;1179;1345;2689;-2273;1519;-3158;1934
596227;2;18;2;1179;-225;3216;-2420;1523;-3742;3456
596237;2;18;2;1179;-298;2107;-2420;3049;-3674;5796
596247;2;18;2;1179;-395;1656;-2663;4501;-2822;4442
596257;2;18;2;1179;-279;1672;-3111;5663;-1673;4028
596267;2;18;2;1179;627;1848;-4493;5428;-1016;3382
596277;2;18;2;1179;263;3103;-5184;3262;171;3427
596287;2;18;2;1179;1335;2304;-5603;2777;1591;3859
596297;2;18;2;1179;1651;2373;-5911;2044;2604;2095
596307;2;18;2;1179;2203;2437;-5954;1048;2835;964
596317;2;18;2;1179;2548;2602;-5651;1;1667;-15
596327;2;18;2;1179;2515;2721;-5236;-536;-897;-384
596337;2;18;2;1179;2288;2368;-5155;-707;-3629;-351
596347;2;18;2;1179;1899;2113;-5284;-869;-5326;-569
596357;2;18;2;1179;1395;2220;-5651;-1334;-5278;-699
596367;2;18;2;1179;1155;1964;-5504;-2377;-3973;-930
596377;2;18;2;1179;904;1954;-4987;-4003;-2238;-1454
596387;2;18;2;1179;1001;1993;-4192;-5376;-596;-1846
596397;2;18;2;1179;1110;2162;-3311;-5636;570;-2449
596407;2;18;2;1179;1172;2427;-2632;-4878;925;-3032
596417;2;18;2;1179;1101;2745;-2332;-3453;472;-3359
596427;2;18;2;1180;1125;2813;-2243;-950;-195;-3461
596437;2;18;2;1180;1054;2575;-2858;866;-606;-3461
596447;2;18;2;1180;862;2221;-3493;518;-785;-2875
596457;2;18;2;1180;719;1908;-3832;-1015;-475;-2537
596467;2;18;2;1180;643;1671;-3760;-2845;466;-2245
596477;2;18;2;1180;503;1339;-3741;-3843;2014;-2479
596487;2;18;2;1180;552;1058;-3487;-4275;3912;-3152
596497;2;18;2;1180;544;1173;-3189;-4492;6006;-4049
596507;2;18;2;1180;366;1363;-2820;-4582;7675;-4604
596517;2;18;2;1180;359;1426;-2365;-4633;8408;-4733
596527;2;18;2;1180;419;1524;-1872;-4143;8063;-4851
596537;2;18;2;1180;467;1804;-1801;-3281;6754;-4547
596547;2;18;2;1180;524;2170;-2091;-2616;5373;-4141
596557;2;18;2;1180;606;2506;-2494;-2304;4203;-3768
596567;2;18;2;1180;605;2644;-2825;-2231;3284;-3433
596577;2;18;2;1180;550;2665;-3096;-2444;2620;-3073
596587;2;18;2;1180;471;2619;-3376;-2926;2378;-2872
596597;2;18;2;1180;455;2674;-3375;-3396;2634;-2798
596607;2;18;2;1180;362;2790;-3221;-3524;3065;-2599
596617;2;18;2;1180;340;2685;-2978;-3535;3459;-2212
596627;2;18;2;1180;353;2580;-2725;-3673;3801;-1774
596637;2;18;2;1180;402;2567;-2560;-4147;3865;-1226
596647;2;18;2;1180;483;2563;-2279;-4854;3494;-518
596657;2;18;2;1180;621;2434;-1901;-5244;2857;35
596667;2;18;2;1180;676;2359;-1681;-4960;2210;61
596677;2;18;2;1180;591;2524;-1757;-4168;1703;6
596687;2;18;2;1180;627;2454;-1870;-3490;1481;207
596697;2;18;2;1180;595;2295;-1962;-2793;1651;67
596707;2;18;2;1180;684;2153;-1978;-2145;2078;-257
596717;2;18;2;1180;780;2134;-1992;-1659;2474;-597
596727;2;18;2;1180;896;2197;-1803;-1292;2705;-1012
596737;2;18;2;1180;959;2283;-1568;-1022;2500;-1439
596747;2;18;2;1180;888;2415;-1406;-623;1894;-1729
596757;2;18;2;1180;852;2230;-1253;127;1068;-1986
596767;2;18;2;1180;736;2045;-1174;1072;125;-2449
596777;2;18;2;1180;569;1998;-1283;2231;-694;-2881
596787;2;18;2;1180;342;1980;-1543;3459;-1153;-3030
596797;2;18;2;1180;242;1887;-1914;4282;-1045;-2975
596807;2;18;2;1180;154;1859;-2240;4326;-241;-2804
596817;2;18;2;1180;32;2003;-2330;3593;1013;-2426
596827;2;18;2;1180;197;1869;-2395;2464;2317;-2008
596837;2;18;2;1180;656;1927;-2657;1232;4161;-1882
596847;2;18;2;1180;1128;2193;-2762;-5;6034;-1784
596857;2;18;2;1180;1735;2030;-2888;-1290;7477;-1866
596867;2;18;2;1180;2081;1947;-2624;-2712;8450;-2502
596877;2;18;2;1180;2135;2053;-2072;-3758;8159;-3063
596887;2;18;2;1180;2236;2163;-1855;-4005;7057;-3329
596897;2;18;2;1180;2275;2385;-1661;-3592;5961;-3585
596907;2;18;2;1180;2160;2718;-1465;-2140;4092;-3645
596917;2;18;2;1180;1997;2876;-1726;592;1760;-3560
596927;2;18;2;1181;1651;2658;-2846;3724;294;-4039
596937;2;18;2;1181;1133;2700;-3735;5211;661;-4679
596947;2;18;2;1181;621;2906;-4247;5871;1510;-4420
596957;2;18;2;1181;340;2983;-4811;5727;1937;-3002
596967;2;18;2;1181;536;2862;-5527;4591;2603;-1090
596977;2;18;2;1181;1293;2515;-5992;2290;3996;232
596987;2;18;2;1181;2047;2433;-5989;146;5415;439
596997;2;18;2;1181;2804;2581;-5489;-1696;6796;118
597007;2;18;2;1181;3468;2705;-4517;-2469;7163;-388
597017;2;18;2;1181;3898;2669;-3580;-2033;5910;-998
597027;2;18;2;1181;3871;2605;-3009;-819;3491;-1399
597037;2;18;2;1181;3394;2482;-2762;723;677;-1282
597047;2;18;2;1181;2843;2163;-2896;2189;-1602;-956
597057;2;18;2;1181;2345;1976;-3111;3035;-2921;-689
597067;2;18;2;1181;1853;1865;-3310;3069;-3505;-290
597077;2;18;2;1181;1616;1557;-3444;2557;-3440;132
597087;2;18;2;1181;1522;1244;-3445;1901;-2787;96
597097;2;18;2;1181;1476;1396;-3500;1245;-1680;-131
597107;2;18;2;1181;1425;1717;-3252;593;-546;-228
597117;2;18;2;1181;1491;1834;-2867;-3;191;-107
597127;2;18;2;1181;1770;1867;-2657;-304;440;-208
597137;2;18;2;1181;2039;2197;-2745;113;810;-703
597147;2;18;2;1181;2112;2554;-2510;1023;1140;-1096
597157;2;18;2;1181;2013;2674;-2348;1794;1150;-1177
597167;2;18;2;1181;1881;2663;-2369;1604;833;-1080
597177;2;18;2;1181;1795;2644;-2300;140;345;-689
597187;2;18;2;1181;1801;2559;-2237;-1258;164;-468
597197;2;18;2;1181;1797;2735;-2123;-1615;840;-763
597207;2;18;2;1181;1821;2856;-1893;-1608;1673;-1086
597217;2;18;2;1181;1817;2851;-1437;-1469;1943;-1267
597227;2;18;2;1181;1762;2900;-1123;-1123;1539;-1225
597237;2;18;2;1181;1613;2838;-893;-605;759;-1020
597247;2;18;2;1181;1601;2534;-796;233;-141;-825
597257;2;18;2;1181;1807;2108;-1193;1486;-788;-1266
597267;2;18;2;1181;1835;2286;-1822;2986;-603;-2127
597277;2;18;2;1181;1692;2497;-2380;4147;-150;-2335
597287;2;18;2;1181;1704;2178;-2778;4189;279;-2079
597297;2;18;2;1181;1682;2010;-2930;3022;432;-1856
597307;2;18;2;1181;1704;1956;-3116;1429;120;-1518
597317;2;18;2;1181;1759;2103;-3416;138;-61;-1252
597327;2;18;2;1181;1760;2294;-3485;-805;211;-969
597337;2;18;2;1181;1677;2447;-3119;-1371;601;-632
597347;2;18;2;1181;1534;2515;-2661;-1588;600;-339
597357;2;18;2;1181;1369;2587;-2309;-1460;189;192
597367;2;18;2;1181;1297;2433;-2364;-1671;-390;798
597377;2;18;2;1181;1371;2328;-2533;-2306;-832;1295
597387;2;18;2;1181;1389;2276;-2684;-2912;-871;1712
597397;2;18;2;1181;1488;2194;-2808;-3372;-535;2002
597407;2;18;2;1181;1959;1813;-2745;-3928;198;1702
597417;2;18;2;1181;2155;1888;-2412;-4534;1064;937
