timestamp;subject_id;activity;label;seq;ax;ay;az;gx;gy;gz
539427;2;18;2;1066;1637;2294;-3205;154;66;-181
539437;2;18;2;1066;1620;2306;-3183;66;71;-137
539447;2;18;2;1066;1634;2322;-3196;-24;58;-117
539457;2;18;2;1066;1629;2326;-3188;-108;80;-96
539467;2;18;2;1066;1608;2341;-3112;-197;136;-87
539477;2;18;2;1066;1618;2365;-3053;-285;164;-63
539487;2;18;2;1066;1592;2388;-2989;-274;137;-19
539497;2;18;2;1066;1597;2357;-2971;-130;119;24
539507;2;18;2;1066;1592;2325;-3022;75;182;34
539517;2;18;2;1066;1614;2276;-3085;222;262;75
539527;2;18;2;1066;1646;2268;-3171;129;319;107
539537;2;18;2;1066;1649;2245;-3150;-175;368;152
539547;2;18;2;1066;1658;2247;-3124;-432;379;183
539557;2;18;2;1066;1665;2296;-3041;-559;388;219
539567;2;18;2;1066;1669;2329;-2966;-552;356;233
539577;2;18;2;1066;1690;2326;-2905;-347;286;211
539587;2;18;2;1066;1728;2287;-2886;77;143;204
539597;2;18;2;1066;1751;2223;-3014;419;-20;175
539607;2;18;2;1066;1726;2194;-3102;396;-84;133
539617;2;18;2;1066;1670;2169;-3116;112;-173;162
539627;2;18;2;1066;1637;2197;-3104;-288;-230;235
539637;2;18;2;1066;1614;2234;-3032;-553;-279;302
539647;2;18;2;1066;1610;2267;-2965;-488;-298;365
539657;2;18;2;1066;1594;2259;-2958;-215;-298;421
539667;2;18;2;1066;1635;2245;-3058;81;-204;410
539677;2;18;2;1066;1628;2180;-3114;214;-18;382
539687;2;18;2;1066;1640;2107;-3170;140;95;399
539697;2;18;2;1066;1625;2103;-3177;-99;116;488
539707;2;18;2;1066;1617;2094;-3129;-466;82;669
539717;2;18;2;1066;1629;2118;-3108;-739;22;831
539727;2;18;2;1066;1634;2076;-3089;-853;30;942
539737;2;18;2;1066;1649;1963;-3089;-684;181;903
539747;2;18;2;1066;1648;1840;-3165;-463;406;772
539757;2;18;2;1066;1762;1600;-3332;-621;802;360
539767;2;18;2;1066;1761;1494;-3580;-950;1210;-15
539777;2;18;2;1066;1835;745;-3462;-1298;1777;-992
539787;2;18;2;1066;1765;866;-3591;-2097;2187;-1825
539797;2;18;2;1066;1762;608;-3816;-3404;2560;-2733
539807;2;18;2;1066;1697;616;-4071;-4644;3651;-3678
539817;2;18;2;1066;1797;823;-4161;-5407;4829;-3987
539827;2;18;2;1066;1911;1293;-3664;-7062;5347;-3778
539837;2;18;2;1066;1890;1499;-3074;-8815;4650;-2835
539847;2;18;2;1066;1993;1687;-2440;-10006;3216;-1757
539857;2;18;2;1066;2251;2027;-1942;-10709;975;-540
539867;2;18;2;1066;2442;2586;-1784;-11227;-1664;818
539877;2;18;2;1066;2628;2882;-1734;-11390;-4150;2009
539887;2;18;2;1066;2723;3058;-1629;-10941;-6011;2706
539897;2;18;2;1066;2586;3261;-1703;-9944;-7094;3035
539907;2;18;2;1066;2402;3241;-1683;-8773;-7417;2963
539917;2;18;2;1066;2243;3226;-1759;-7487;-6884;2273
539927;2;18;2;1067;2084;3486;-1698;-6171;-6170;1576
539937;2;18;2;1067;1934;3836;-1785;-5085;-5586;1558
539947;2;18;2;1067;2017;3707;-1857;-4226;-4922;1559
539957;2;18;2;1067;1989;3689;-1866;-3481;-4406;1219
539967;2;18;2;1067;1899;3848;-1964;-3111;-3952;929
539977;2;18;2;1067;1756;3972;-2037;-3041;-3540;858
539987;2;18;2;1067;1741;3878;-2188;-2904;-2837;749
539997;2;18;2;1067;1683;3807;-2329;-2625;-1724;373
540007;2;18;2;1067;1699;3728;-2383;-2361;-445;-184
540017;2;18;2;1067;1721;3635;-2454;-2185;862;-723
540027;2;18;2;1067;1716;3571;-2649;-2284;2253;-1438
540037;2;18;2;1067;1620;3446;-2635;-2518;3782;-2264
540047;2;18;2;1067;1516;3348;-2518;-2825;5164;-3288
540057;2;18;2;1067;1364;3441;-2349;-3289;6436;-4109
540067;2;18;2;1067;1359;3449;-2155;-3675;7423;-4762
540077;2;18;2;1067;1496;3529;-1487;-3444;7838;-4919
540087;2;18;2;1067;1438;3566;-1103;-2597;7502;-4859
540097;2;18;2;1067;1513;3799;-928;-2079;6589;-4689
540107;2;18;2;1067;1575;3886;-858;-2044;5479;-4308
540117;2;18;2;1067;1577;3869;-863;-1886;4524;-3940
540127;2;18;2;1067;1536;3834;-912;-1309;3804;-3800
540137;2;18;2;1067;1472;3819;-1107;-438;3455;-3693
540147;2;18;2;1067;1471;3746;-1330;-239;3465;-3329
540157;2;18;2;1067;1531;3661;-1444;-880;2970;-3641
540167;2;18;2;1067;1275;3848;-1536;-1587;2771;-3497
540177;2;18;2;1067;1172;3761;-1469;-2183;2717;-3299
540187;2;18;2;1067;1072;3633;-1457;-2636;2930;-3101
540197;2;18;2;1067;1027;3557;-1486;-2774;3157;-3053
540207;2;18;2;1067;1108;3514;-1375;-3037;3266;-3123
540217;2;18;2;1067;1119;3636;-1165;-3496;2912;-3075
540227;2;18;2;1067;1268;3700;-1039;-3774;2024;-2731
540237;2;18;2;1067;1415;3877;-1259;-3721;1094;-2199
540247;2;18;2;1067;1644;3790;-1473;-3530;495;-1801
540257;2;18;2;1067;1851;3715;-1639;-3236;292;-2034
540267;2;18;2;1067;1915;3720;-1613;-3108;401;-2445
540277;2;18;2;1067;1914;3746;-1363;-3279;128;-2761
540287;2;18;2;1067;1885;3871;-1229;-3964;-494;-2904
540297;2;18;2;1067;1741;4000;-1016;-4888;-1154;-2787
540307;2;18;2;1067;1619;4034;-854;-5570;-1884;-2531
540317;2;18;2;1067;1485;3998;-726;-5874;-2279;-2402
540327;2;18;2;1067;1328;4025;-591;-5764;-2385;-2332
540337;2;18;2;1067;1179;4116;-478;-5468;-2442;-2136
540347;2;18;2;1067;1161;4063;-291;-5098;-2500;-1972
540357;2;18;2;1067;1143;4164;-269;-4654;-2632;-1709
540367;2;18;2;1067;1114;4209;-255;-4398;-2750;-1278
540377;2;18;2;1067;1196;4075;-120;-4144;-2870;-911
540387;2;18;2;1067;1167;4014;-61;-3696;-3101;-767
540397;2;18;2;1067;1145;4096;-119;-3319;-3287;-602
540407;2;18;2;1067;1142;4047;-221;-2967;-3205;-532
540417;2;18;2;1067;1123;3988;-309;-2521;-2758;-689
540427;2;18;2;1068;1058;4010;-360;-1987;-2100;-896
540437;2;18;2;1068;975;4058;-364;-1762;-1586;-904
540447;2;18;2;1068;887;4114;-259;-1789;-1159;-765
540457;2;18;2;1068;847;4148;-72;-1917;-1169;-413
540467;2;18;2;1068;930;4108;-6;-1903;-1475;23
540477;2;18;2;1068;1069;3997;-77;-1573;-1784;124
540487;2;18;2;1068;1194;3903;-217;-1236;-1686;-275
540497;2;18;2;1068;1442;3814;-307;-728;-1383;-961
540507;2;18;2;1068;1652;4026;-284;-11;-1234;-1322
540517;2;18;2;1068;1686;4277;-404;416;-1604;-1133
540527;2;18;2;1068;1747;4257;-563;270;-2155;-1026
540537;2;18;2;1068;1739;4223;-715;-284;-2558;-1133
540547;2;18;2;1068;1655;4222;-845;-1054;-2759;-1340
540557;2;18;2;1068;1556;4194;-804;-1796;-2818;-1732
540567;2;18;2;1068;1423;4216;-633;-2318;-2941;-1956
540577;2;18;2;1068;1217;4205;-481;-2590;-3251;-1809
540587;2;18;2;1068;1102;4126;-361;-2628;-3690;-1433
540597;2;18;2;1068;1016;4048;-271;-2462;-4096;-963
540607;2;18;2;1068;976;3925;-308;-2152;-4432;-579
540617;2;18;2;1068;990;3887;-404;-1865;-4507;-405
540627;2;18;2;1068;1048;3897;-414;-1714;-4477;-315
540637;2;18;2;1068;1133;3883;-395;-1698;-4556;-260
540647;2;18;2;1068;1199;3882;-446;-1769;-4677;-268
540657;2;18;2;1068;1187;3819;-443;-1928;-4620;-343
540667;2;18;2;1068;1108;3805;-377;-2244;-4595;-428
540677;2;18;2;1068;1040;3862;-291;-2656;-4625;-426
540687;2;18;2;1068;888;3954;-202;-3089;-4638;-276
540697;2;18;2;1068;810;3924;-45;-3347;-4585;-106
540707;2;18;2;1068;766;3892;84;-3298;-4355;-146
540717;2;18;2;1068;747;3953;174;-2906;-4096;-261
540727;2;18;2;1068;775;4041;196;-2275;-3904;-240
540737;2;18;2;1068;848;4122;228;-1709;-3882;-52
540747;2;18;2;1068;947;4102;184;-1283;-4027;159
540757;2;18;2;1068;1088;4047;34;-1039;-4224;297
540767;2;18;2;1068;1197;4002;-154;-1059;-4268;285
540777;2;18;2;1068;1245;4022;-250;-1281;-4274;162
540787;2;18;2;1068;1256;3989;-254;-1600;-4287;45
540797;2;18;2;1068;1202;3983;-203;-1861;-4368;-57
540807;2;18;2;1068;1206;4025;-195;-2077;-4559;-66
540817;2;18;2;1068;1142;4039;-171;-2280;-4788;-12
540827;2;18;2;1068;1159;3992;-147;-2393;-4973;21
540837;2;18;2;1068;1139;4003;-125;-2365;-5140;75
540847;2;18;2;1068;1137;3951;-94;-2248;-5335;180
540857;2;18;2;1068;1210;3816;-129;-1969;-5477;259
540867;2;18;2;1068;1309;3736;-232;-1770;-5432;164
540877;2;18;2;1068;1354;3747;-259;-1868;-5316;14
540887;2;18;2;1068;1367;3661;-239;-2133;-5299;-138
540897;2;18;2;1068;1319;3741;-139;-2410;-5373;-168
540907;2;18;2;1068;1272;3756;-38;-2531;-5570;-103
540917;2;18;2;1068;1223;3812;35;-2515;-5775;1
540927;2;18;2;1069;1215;3845;55;-2449;-5984;151
540937;2;18;2;1069;1217;3870;64;-2328;-6038;241
540947;2;18;2;1069;1214;3946;144;-2013;-6112;380
540957;2;18;2;1069;1263;3993;166;-1553;-6196;526
540967;2;18;2;1069;1275;4087;151;-1209;-6330;675
540977;2;18;2;1069;1340;4114;7;-941;-6457;721
540987;2;18;2;1069;1346;4118;-212;-637;-6325;533
540997;2;18;2;1069;1373;4167;-330;-383;-6094;345
541007;2;18;2;1069;1363;4312;-479;-269;-5944;325
541017;2;18;2;1069;1347;4299;-605;-323;-6069;485
541027;2;18;2;1069;1314;4277;-760;-475;-6320;675
541037;2;18;2;1069;1324;4156;-993;-779;-6593;813
541047;2;18;2;1069;1328;4046;-1145;-1302;-6730;825
541057;2;18;2;1069;1298;3939;-1124;-1943;-6786;723
541067;2;18;2;1069;1205;3913;-954;-2552;-7001;646
541077;2;18;2;1069;996;3993;-672;-2892;-7406;795
541087;2;18;2;1069;821;4026;-435;-2646;-7860;1042
541097;2;18;2;1069;829;3854;-474;-1883;-8113;1011
541107;2;18;2;1069;759;3799;-575;-1351;-7952;860
541117;2;18;2;1069;695;3919;-584;-1416;-7682;616
541127;2;18;2;1069;641;4217;-212;-1303;-7568;548
541137;2;18;2;1069;563;4448;-39;-642;-7630;534
541147;2;18;2;1069;413;4494;-150;61;-7797;703
541157;2;18;2;1069;268;4372;-387;1;-7907;784
541167;2;18;2;1069;129;4406;-229;-293;-7807;841
541177;2;18;2;1069;-143;4708;531;804;-7622;998
541187;2;18;2;1069;-248;4847;1020;3640;-7212;1333
541197;2;18;2;1069;-366;4632;946;6084;-6457;1469
541207;2;18;2;1069;-241;4293;817;6332;-5888;1409
541217;2;18;2;1069;-48;4100;655;4602;-5482;1084
541227;2;18;2;1069;584;4601;742;2477;-5655;895
541237;2;18;2;1069;1061;4794;899;1913;-5992;1063
541247;2;18;2;1069;1331;4641;797;2317;-6243;960
541257;2;18;2;1069;1324;4449;315;3130;-6029;108
541267;2;18;2;1069;1093;4372;-213;3676;-5291;-1028
541277;2;18;2;1069;886;4375;-631;3382;-4969;-1732
541287;2;18;2;1069;430;4524;-903;1897;-5159;-1738
541297;2;18;2;1069;120;4507;-997;-54;-5830;-1416
541307;2;18;2;1069;-82;4535;-1053;-1795;-6452;-923
541317;2;18;2;1069;-58;4420;-919;-2837;-6865;-414
541327;2;18;2;1069;5;4326;-689;-3465;-7183;-27
541337;2;18;2;1069;73;4171;-475;-3850;-7573;400
541347;2;18;2;1069;226;3964;-298;-3833;-7990;802
541357;2;18;2;1069;343;3848;-232;-3526;-8406;1157
541367;2;18;2;1069;519;3764;-255;-3258;-8825;1463
541377;2;18;2;1069;630;3695;-288;-3236;-9190;1635
541387;2;18;2;1069;680;3699;-336;-3447;-9413;1712
541397;2;18;2;1069;726;3686;-144;-3661;-9618;1713
541407;2;18;2;1069;801;3733;14;-3717;-9891;1775
541417;2;18;2;1069;758;3767;115;-3587;-9943;1829
541427;2;18;2;1070;716;3785;101;-3291;-9781;1716
541437;2;18;2;1070;693;3791;40;-2978;-9310;1399
541447;2;18;2;1070;596;3858;0;-2818;-8817;1138
541457;2;18;2;1070;512;3850;-80;-2718;-8373;990
541467;2;18;2;1070;471;3863;-91;-2539;-7836;886
541477;2;18;2;1070;447;3934;-77;-2196;-7449;827
541487;2;18;2;1070;424;3972;-88;-1951;-7328;905
541497;2;18;2;1070;351;4047;-88;-1904;-7427;1045
541507;2;18;2;1070;218;4096;-100;-1870;-7591;1164
541517;2;18;2;1070;119;4128;-148;-1898;-7719;1234
541527;2;18;2;1070;42;4190;-369;-2115;-7627;1182
541537;2;18;2;1070;-44;4251;-483;-2411;-7441;1205
541547;2;18;2;1070;-51;4229;-584;-2585;-7166;1072
541557;2;18;2;1070;-54;4283;-675;-2804;-6784;860
541567;2;18;2;1070;-35;4381;-665;-3132;-6530;629
541577;2;18;2;1070;77;4449;-594;-3321;-6520;431
541587;2;18;2;1070;172;4411;-600;-3281;-6703;242
541597;2;18;2;1070;142;4370;-695;-2996;-6970;58
541607;2;18;2;1070;137;4288;-752;-2676;-7200;-58
541617;2;18;2;1070;49;4290;-804;-2440;-7650;8
541627;2;18;2;1070;-93;4291;-904;-2416;-8198;173
541637;2;18;2;1070;-99;4435;-955;-2537;-8860;592
541647;2;18;2;1070;-57;4844;-1048;-2700;-9601;1544
541657;2;18;2;1070;102;4142;-862;-2662;-10521;2490
541667;2;18;2;1070;267;3350;-992;-2044;-11043;1728
541677;2;18;2;1070;287;3624;-1147;-1187;-11092;936
541687;2;18;2;1070;315;3677;-1205;-1123;-11133;789
541697;2;18;2;1070;420;3422;-720;-2022;-11710;784
541707;2;18;2;1070;643;3636;-242;-3380;-12742;836
541717;2;18;2;1070;1106;4076;-4;-3142;-13347;1314
541727;2;18;2;1070;1515;3800;-536;-1352;-12692;1244
541737;2;18;2;1070;1653;3738;-1049;-188;-11410;192
541747;2;18;2;1070;1465;4071;-886;-445;-10826;-182
541757;2;18;2;1070;1437;4281;-494;-1409;-11535;328
541767;2;18;2;1070;1350;4509;-293;-2355;-12869;1025
541777;2;18;2;1070;1409;4484;-335;-3240;-13908;1785
541787;2;18;2;1070;1662;4180;-89;-3768;-14373;2095
541797;2;18;2;1070;2007;3868;74;-3418;-14406;1857
541807;2;18;2;1070;2434;3526;-556;-2774;-13582;1562
541817;2;18;2;1070;2654;3129;-829;-3427;-12493;803
541827;2;18;2;1070;2802;3065;-609;-4546;-11391;-7
541837;2;18;2;1070;2740;3361;-81;-4683;-10775;-483
541847;2;18;2;1070;2907;2869;301;-2878;-10620;-311
541857;2;18;2;1070;2509;3127;338;-1437;-10471;-134
541867;2;18;2;1070;2350;3342;634;-249;-10214;310
541877;2;18;2;1070;2191;3567;732;942;-9752;637
541887;2;18;2;1070;2109;3740;486;2026;-8847;737
541897;2;18;2;1070;2076;3842;49;2680;-7336;699
541907;2;18;2;1070;2137;3895;-159;2988;-5927;603
541917;2;18;2;1070;2200;4130;-166;3157;-4615;493
541927;2;18;2;1071;2105;4472;-141;2757;-3975;719
541937;2;18;2;1071;2090;4430;-248;2054;-3891;790
541947;2;18;2;1071;1961;4437;-408;951;-3966;853
541957;2;18;2;1071;1811;4442;-430;-110;-3987;944
541967;2;18;2;1071;1596;4429;-358;-932;-4110;1119
541977;2;18;2;1071;1476;4301;-279;-1309;-4168;1319
541987;2;18;2;1071;1397;4144;-230;-1152;-3938;1301
541997;2;18;2;1071;1435;3956;-315;-772;-3378;1052
542007;2;18;2;1071;1493;3864;-332;-608;-2871;705
542017;2;18;2;1071;1576;3856;-298;-773;-2743;576
542027;2;18;2;1071;1696;3779;-286;-923;-3029;613
542037;2;18;2;1071;1763;3695;-315;-902;-3427;693
542047;2;18;2;1071;1799;3628;-290;-785;-3654;657
542057;2;18;2;1071;1788;3680;-215;-563;-3743;483
542067;2;18;2;1071;1693;3743;-175;-266;-3865;387
542077;2;18;2;1071;1617;3689;-127;6;-4071;416
542087;2;18;2;1071;1640;3624;-145;280;-4264;442
542097;2;18;2;1071;1622;3651;-249;517;-4316;431
542107;2;18;2;1071;1673;3603;-445;583;-4193;337
542117;2;18;2;1071;1691;3595;-582;507;-3779;145
542127;2;18;2;1071;1741;3750;-539;521;-3310;103
542137;2;18;2;1071;1744;3629;-579;597;-2828;-13
542147;2;18;2;1071;1701;3588;-573;500;-2454;-135
542157;2;18;2;1071;1718;3714;-525;54;-2449;-181
542167;2;18;2;1071;1733;3850;-439;-444;-2624;147
542177;2;18;2;1071;1788;3852;-342;-647;-2733;232
542187;2;18;2;1071;1815;3884;-238;-508;-2616;152
542197;2;18;2;1071;1772;3958;-178;-255;-2432;38
542207;2;18;2;1071;1653;4054;-179;-117;-2377;52
542217;2;18;2;1071;1645;4088;-211;-92;-2448;106
542227;2;18;2;1071;1623;4113;-314;-9;-2471;158
542237;2;18;2;1071;1654;4110;-483;86;-2309;177
542247;2;18;2;1071;1723;4006;-626;312;-1953;75
542257;2;18;2;1071;1768;3937;-721;323;-1575;-203
542267;2;18;2;1071;1724;3910;-753;-115;-1419;-437
542277;2;18;2;1071;1684;3859;-703;-822;-1408;-534
542287;2;18;2;1071;1617;3793;-546;-1558;-1483;-570
542297;2;18;2;1071;1546;3791;-369;-2188;-1540;-576
542307;2;18;2;1071;1482;3784;-159;-2556;-1487;-550
542317;2;18;2;1071;1428;3875;37;-2569;-1329;-506
542327;2;18;2;1071;1440;3962;150;-2357;-1188;-382
542337;2;18;2;1071;1460;4017;212;-1962;-1120;-182
542347;2;18;2;1071;1582;4016;168;-1460;-1065;-38
542357;2;18;2;1071;1656;4077;38;-1079;-936;-87
542367;2;18;2;1071;1722;4188;-37;-792;-729;-306
542377;2;18;2;1071;1759;4398;36;-264;-540;-535
542387;2;18;2;1071;1719;4475;-8;362;-588;-712
542397;2;18;2;1071;1562;4650;-148;755;-930;-909
542407;2;18;2;1071;1291;4729;-306;1441;-1552;-968
542417;2;18;2;1071;864;4917;-599;2621;-2476;-583
542427;2;18;2;1072;676;4808;-1159;3974;-3466;163
542437;2;18;2;1072;545;4507;-1901;4928;-3936;818
542447;2;18;2;1072;513;4116;-2532;4994;-3671;1291
542457;2;18;2;1072;654;3614;-2941;4200;-2857;1389
542467;2;18;2;1072;778;3162;-3003;2789;-1787;1193
542477;2;18;2;1072;918;2788;-2855;1098;-855;820
542487;2;18;2;1072;1006;2600;-2618;-475;-248;355
542497;2;18;2;1072;1074;2450;-2345;-1760;142;-47
542507;2;18;2;1072;966;2446;-2078;-2858;478;-507
542517;2;18;2;1072;756;2650;-1819;-3736;910;-895
542527;2;18;2;1072;491;2803;-1506;-4223;1706;-1180
542537;2;18;2;1072;321;3075;-1123;-4357;3067;-1772
542547;2;18;2;1072;179;3516;-808;-3764;4951;-2508
542557;2;18;2;1072;139;4123;-218;-2040;6694;-2909
542567;2;18;2;1072;142;4535;104;438;7436;-2490
542577;2;18;2;1072;351;4666;-45;2316;7328;-1840
542587;2;18;2;1072;585;4739;-477;3091;7030;-1345
542597;2;18;2;1072;862;4669;-794;3033;6835;-1157
542607;2;18;2;1072;1086;4641;-990;2617;6611;-1278
542617;2;18;2;1072;1194;4598;-1137;2350;6490;-1462
542627;2;18;2;1072;1195;4460;-1346;2489;6587;-1728
542637;2;18;2;1072;1089;4172;-1667;3079;7252;-2216
542647;2;18;2;1072;896;3837;-1769;3763;8260;-2713
542657;2;18;2;1072;697;3572;-1723;3785;9008;-2940
542667;2;18;2;1072;529;3379;-1671;2835;9464;-2910
542677;2;18;2;1072;384;3390;-1435;1478;9808;-2750
542687;2;18;2;1072;398;3500;-1030;629;10015;-2523
542697;2;18;2;1072;412;3758;-646;728;10019;-2121
542707;2;18;2;1072;555;3977;-502;1420;9791;-1569
542717;2;18;2;1072;715;4070;-565;2370;9516;-1114
542727;2;18;2;1072;877;4001;-813;3319;9428;-869
542737;2;18;2;1072;971;3918;-1021;3943;9416;-792
542747;2;18;2;1072;1029;3763;-1346;4190;9600;-823
542757;2;18;2;1072;1081;3629;-1628;4268;10069;-1077
542767;2;18;2;1072;1042;3633;-1814;4163;10636;-1246
542777;2;18;2;1072;1006;3581;-1956;3905;11169;-1364
542787;2;18;2;1072;977;3572;-2040;3609;11938;-1541
542797;2;18;2;1072;945;3654;-2066;3374;12734;-1651
542807;2;18;2;1072;942;3795;-1994;3171;13370;-1577
542817;2;18;2;1072;1047;3861;-1850;3024;13764;-1416
542827;2;18;2;1072;1161;3912;-1860;3124;13969;-1197
542837;2;18;2;1072;1336;3910;-1851;3443;14040;-904
542847;2;18;2;1072;1476;3847;-1982;3587;14038;-791
542857;2;18;2;1072;1405;3789;-2094;3523;14045;-813
542867;2;18;2;1072;1233;3763;-2185;3322;13998;-798
542877;2;18;2;1072;963;3660;-2237;3102;14200;-784
542887;2;18;2;1072;670;3613;-2192;3098;14627;-855
542897;2;18;2;1072;469;3609;-2223;3432;15204;-860
542907;2;18;2;1072;413;3589;-2263;4019;16001;-972
542917;2;18;2;1072;400;3605;-2154;4548;16512;-1000
542927;2;18;2;1073;484;3614;-2070;4834;16388;-900
542937;2;18;2;1073;453;3595;-2029;4980;15820;-663
542947;2;18;2;1073;494;3512;-2109;5124;15089;-448
542957;2;18;2;1073;496;3436;-2267;5307;14472;-388
542967;2;18;2;1073;361;3391;-2520;5340;14105;-452
542977;2;18;2;1073;222;3322;-2669;5027;14057;-553
542987;2;18;2;1073;194;3310;-2566;4280;14221;-786
542997;2;18;2;1073;150;3367;-2297;3278;14250;-1073
543007;2;18;2;1073;100;3439;-1956;2393;14152;-1285
543017;2;18;2;1073;-6;3565;-1508;1952;13832;-1422
543027;2;18;2;1073;-75;3525;-1127;2071;13141;-1440
543037;2;18;2;1073;-157;3560;-937;2601;12107;-1322
543047;2;18;2;1073;-147;3373;-881;3165;10717;-1076
543057;2;18;2;1073;-131;3244;-982;3364;8936;-740
543067;2;18;2;1073;-89;3030;-1083;3098;6917;-179
543077;2;18;2;1073;-96;2912;-1205;2509;5048;279
543087;2;18;2;1073;-86;2870;-1314;1786;3571;663
543097;2;18;2;1073;57;2723;-1547;1196;2882;873
543107;2;18;2;1073;327;2557;-1489;374;2860;898
543117;2;18;2;1073;950;2426;-1101;-927;3403;737
543127;2;18;2;1073;2093;2717;1249;-1517;3993;85
543137;2;18;2;1073;2506;3913;3688;1755;3724;-265
543147;2;18;2;1073;2659;3496;2563;3504;3179;-181
543157;2;18;2;1073;2741;2922;1579;1186;2386;-449
543167;2;18;2;1073;2291;2913;1055;-832;1598;-162
543177;2;18;2;1073;1640;2977;721;-1571;705;840
543187;2;18;2;1073;1468;2970;144;-1640;-100;2021
543197;2;18;2;1073;1669;3381;-313;-2131;-259;3276
543207;2;18;2;1073;2091;3439;-494;-3100;182;4185
543217;2;18;2;1073;2246;3390;-387;-4272;837;4381
543227;2;18;2;1073;2214;3595;-145;-5302;812;4370
543237;2;18;2;1073;2047;3675;58;-5821;278;4396
543247;2;18;2;1073;1863;3573;43;-5167;-638;4336
543257;2;18;2;1073;1656;3184;-211;-3613;-1593;4354
543267;2;18;2;1073;1502;2811;-622;-2718;-2467;4519
543277;2;18;2;1073;1378;2301;-1067;-2925;-2700;4400
543287;2;18;2;1073;1322;1886;-1025;-3709;-2427;4017
543297;2;18;2;1073;1284;1827;-679;-4493;-2414;3722
543307;2;18;2;1073;1177;1972;-321;-4767;-2812;3641
543317;2;18;2;1073;1062;2027;-173;-4247;-3434;3794
543327;2;18;2;1073;973;1931;-460;-3077;-4014;4234
543337;2;18;2;1073;1052;1701;-761;-2323;-4054;4415
543347;2;18;2;1073;1258;1485;-1049;-2315;-3779;4400
543357;2;18;2;1073;1683;1291;-1122;-2901;-3380;4288
543367;2;18;2;1073;2200;1221;-830;-3498;-3216;3940
543377;2;18;2;1073;2535;1459;-431;-4183;-3561;3426
543387;2;18;2;1073;2576;1781;63;-4466;-4233;2936
543397;2;18;2;1073;2383;1982;281;-3616;-4895;2591
543407;2;18;2;1073;2056;2169;136;-2082;-5221;2317
543417;2;18;2;1073;1677;2253;-366;-354;-4869;2348
543427;2;18;2;1074;1519;2288;-997;796;-3982;2535
543437;2;18;2;1074;1554;2427;-1278;927;-3163;2872
543447;2;18;2;1074;1895;2558;-1618;427;-2349;3237
543457;2;18;2;1074;2478;2981;-1712;-191;-946;3064
543467;2;18;2;1074;3192;3481;-1182;-907;512;2702
543477;2;18;2;1074;3749;3805;-144;-779;1177;2285
543487;2;18;2;1074;3951;4141;182;-104;910;2004
543497;2;18;2;1074;3653;4145;-366;356;644;1384
543507;2;18;2;1074;3215;3893;-986;680;1020;454
543517;2;18;2;1074;2494;3694;-1463;1369;2350;-476
543527;2;18;2;1074;1883;3882;-1729;1935;3910;-1114
543537;2;18;2;1074;1270;4160;-1750;1702;5502;-1550
543547;2;18;2;1074;892;4832;-1547;1539;6607;-1458
543557;2;18;2;1074;868;5245;-1449;2287;7170;-759
543567;2;18;2;1074;1418;5340;-1583;3197;7564;-152
543577;2;18;2;1074;2260;5564;-1667;3208;7787;168
543587;2;18;2;1074;2882;5676;-1408;2291;7779;148
543597;2;18;2;1074;3363;5595;-1171;800;7415;-111
543607;2;18;2;1074;3337;5433;-1065;-746;7628;-742
543617;2;18;2;1074;2800;5023;-641;-1439;8250;-1445
543627;2;18;2;1074;2389;4787;-371;-1519;8510;-1745
543637;2;18;2;1074;1509;4881;-625;-1705;8403;-1625
543647;2;18;2;1074;1097;4793;-557;-1489;8390;-1070
543657;2;18;2;1074;1272;4805;-935;-751;8995;-693
543667;2;18;2;1074;1749;4924;-1190;-284;9647;-443
543677;2;18;2;1074;2227;5065;-871;331;9710;-652
543687;2;18;2;1074;2516;5215;-816;1003;9544;-919
543697;2;18;2;1074;2798;5094;-356;962;9847;-1363
543707;2;18;2;1074;3022;5225;597;328;9979;-1899
543717;2;18;2;1074;3189;5390;1068;-503;8982;-2120
543727;2;18;2;1074;3267;5182;621;-1691;7752;-1973
543737;2;18;2;1074;3999;4614;606;-3077;6732;-2073
543747;2;18;2;1074;4800;4323;866;-3926;5469;-2399
543757;2;18;2;1074;4858;4591;1627;-3035;4355;-3196
543767;2;18;2;1074;4327;4813;2164;877;2948;-3554
543777;2;18;2;1074;3298;4099;590;3751;1660;-3920
543787;2;18;2;1074;2488;3408;-867;3517;1157;-4108
543797;2;18;2;1074;1644;3275;-1439;3031;1412;-3586
543807;2;18;2;1074;1532;3232;-1499;3952;2217;-2054
543817;2;18;2;1074;2241;3187;-1386;4067;2806;-1563
543827;2;18;2;1074;3033;3444;-308;3304;3521;-1370
543837;2;18;2;1074;3705;3579;990;2907;3971;-1441
543847;2;18;2;1074;4008;3336;1287;2774;4155;-1565
543857;2;18;2;1074;3998;2602;255;674;3628;-1427
543867;2;18;2;1074;4058;1761;-629;-2807;3034;-1399
543877;2;18;2;1074;3125;1655;-697;-5776;2667;-1696
543887;2;18;2;1074;2052;1746;-436;-7297;2749;-1606
543897;2;18;2;1074;995;2008;-364;-8024;2943;-1241
543907;2;18;2;1074;-285;3126;4;-8240;3718;-457
543917;2;18;2;1074;-16;3451;719;-6874;4205;478
543927;2;18;2;1075;778;3903;660;-5377;3805;698
543937;2;18;2;1075;2320;3157;-52;-4755;1903;706
543947;2;18;2;1075;3780;1933;-1388;-5312;488;-533
543957;2;18;2;1075;3915;1320;-932;-6185;699;-2322
543967;2;18;2;1075;3667;926;1184;-6319;511;-3060
543977;2;18;2;1075;3939;1588;2847;-7802;1449;-2602
543987;2;18;2;1075;4132;3083;5107;-11179;3868;-2685
543997;2;18;2;1075;4296;4400;6759;-15039;7574;-2167
544007;2;18;2;1075;4262;4971;7614;-17742;10705;-658
544017;2;18;2;1075;3501;5954;7672;-18498;11421;1586
544027;2;18;2;1075;4111;6461;6844;-16965;10870;3537
544037;2;18;2;1075;3918;5649;6043;-14755;10965;3117
544047;2;18;2;1075;1862;3427;5103;-13250;9883;1051
544057;2;18;2;1075;824;1954;3879;-11222;7188;121
544067;2;18;2;1075;188;56;2581;-8639;4596;206
544077;2;18;2;1075;62;-2367;1661;-7250;3380;31
544087;2;18;2;1075;3;-3793;2029;-8169;3366;-402
544097;2;18;2;1075;-455;-4226;4215;-8849;4009;-247
544107;2;18;2;1075;-768;-3592;5773;-8364;4266;-468
544117;2;18;2;1075;-1574;-2371;5827;-10840;3465;-830
544127;2;18;2;1075;-2433;-979;5682;-14194;1565;36
544137;2;18;2;1075;-1781;247;4573;-15163;1172;1721
544147;2;18;2;1075;-247;1319;3876;-15387;2638;3049
544157;2;18;2;1075;2245;1975;4461;-16095;4292;3231
544167;2;18;2;1075;4828;1329;5555;-14948;5361;1909
544177;2;18;2;1075;4574;832;5949;-12757;5429;313
544187;2;18;2;1075;3186;-85;5832;-11132;4852;-430
544197;2;18;2;1075;1312;-521;6222;-10324;4429;-831
544207;2;18;2;1075;-175;-396;6549;-9603;3919;105
544217;2;18;2;1075;-36;-874;6202;-10767;3418;1213
544227;2;18;2;1075;110;-807;6514;-12549;3401;1686
544237;2;18;2;1075;-54;-482;7092;-13061;3706;1848
544247;2;18;2;1075;730;-402;7412;-11808;4386;2169
544257;2;18;2;1075;1404;-135;7360;-8987;4972;2689
544267;2;18;2;1075;2127;-712;6278;-6627;5257;3660
544277;2;18;2;1075;3034;-2072;4889;-5653;5767;3635
544287;2;18;2;1075;3134;-2753;4126;-5653;6234;2616
544297;2;18;2;1075;1694;-2303;4066;-5405;6161;1541
544307;2;18;2;1075;409;-2209;4445;-3847;5589;441
544317;2;18;2;1075;-261;-2024;4523;-2160;4848;-1448
544327;2;18;2;1075;-1248;-909;4643;-1591;3034;-3034
544337;2;18;2;1075;-2518;905;4370;-1287;296;-2348
544347;2;18;2;1075;-2792;1634;3591;224;-1533;-731
544357;2;18;2;1075;-2276;2286;2392;1850;-1616;622
544367;2;18;2;1075;-1324;2722;1277;1286;-683;1693
544377;2;18;2;1075;-233;2425;1033;-1937;544;1984
544387;2;18;2;1075;881;1631;1656;-6082;1046;1215
544397;2;18;2;1075;1596;788;2634;-9789;1363;-63
544407;2;18;2;1075;1562;151;3970;-11956;1781;-1380
544417;2;18;2;1075;1174;-394;5418;-11662;1871;-2286
544427;2;18;2;1076;690;-1035;6504;-8717;1502;-2326
544437;2;18;2;1076;203;-1414;7668;-3286;809;-1909
544447;2;18;2;1076;-252;-1044;6113;2018;421;-830
544457;2;18;2;1076;75;-1657;4544;2868;713;-216
544467;2;18;2;1076;320;-1652;3965;3552;1787;-452
544477;2;18;2;1076;433;-829;3565;4799;2857;-793
544487;2;18;2;1076;681;-584;3417;5609;3203;-769
544497;2;18;2;1076;937;-502;3163;5282;2888;-1126
544507;2;18;2;1076;1005;-469;3101;3313;2429;-1473
544517;2;18;2;1076;877;-235;3806;595;1937;-1849
544527;2;18;2;1076;359;264;5327;-343;1269;-1736
544537;2;18;2;1076;127;368;6003;989;364;-1201
544547;2;18;2;1076;364;-44;5203;1169;-626;-890
544557;2;18;2;1076;533;-195;4475;-384;-1649;-773
544567;2;18;2;1076;306;-168;3992;-1590;-2417;-640
544577;2;18;2;1076;131;-287;3751;-1520;-2838;-327
544587;2;18;2;1076;31;-381;3320;-701;-2467;-201
544597;2;18;2;1076;-21;-544;3095;-409;-1560;-165
544607;2;18;2;1076;130;-785;3308;-819;-749;-135
544617;2;18;2;1076;223;-790;4108;-1172;-599;-49
544627;2;18;2;1076;283;-639;4691;-503;-1068;271
544637;2;18;2;1076;421;-714;4661;824;-1374;494
544647;2;18;2;1076;463;-947;4200;1632;-1211;311
544657;2;18;2;1076;449;-1074;3929;1709;-875;12
544667;2;18;2;1076;379;-1086;4093;1899;-695;-150
544677;2;18;2;1076;246;-937;4506;2789;-351;-232
544687;2;18;2;1076;-20;-682;4820;3763;139;-226
544697;2;18;2;1076;-218;-583;4621;4096;415;-26
544707;2;18;2;1076;-120;-650;4149;3923;543;327
544717;2;18;2;1076;224;-637;3794;3748;773;435
544727;2;18;2;1076;430;-343;3846;3928;738;263
544737;2;18;2;1076;549;-67;4067;4186;564;103
544747;2;18;2;1076;431;137;4368;4164;382;-336
544757;2;18;2;1076;-3;282;4425;3663;-230;-559
544767;2;18;2;1076;-139;51;4070;2697;-1051;-279
544777;2;18;2;1076;-88;-15;3797;1742;-1537;-110
544787;2;18;2;1076;13;110;3787;1314;-2087;209
544797;2;18;2;1076;278;123;3956;1549;-2459;625
544807;2;18;2;1076;565;252;4391;2472;-2298;611
544817;2;18;2;1076;809;340;4850;3483;-1513;267
544827;2;18;2;1076;807;464;4961;4169;-815;-516
544837;2;18;2;1076;761;419;4403;3935;-1257;-632
544847;2;18;2;1076;913;51;3889;3263;-2076;-568
544857;2;18;2;1076;827;-152;3691;2576;-2681;-824
544867;2;18;2;1076;297;64;3917;2204;-3313;-988
544877;2;18;2;1076;-400;444;4760;3064;-3788;-305
544887;2;18;2;1076;-399;320;5386;4826;-3546;150
544897;2;18;2;1076;-194;208;4856;4922;-3098;-50
544907;2;18;2;1076;143;254;4077;2803;-3555;158
544917;2;18;2;1076;594;140;3952;1538;-4252;540
544927;2;18;2;1077;832;216;4024;2293;-4869;613
544937;2;18;2;1077;813;323;4178;3483;-5492;816
544947;2;18;2;1077;945;317;4556;4153;-5706;861
544957;2;18;2;1077;1159;383;4870;4313;-5368;568
544967;2;18;2;1077;1176;597;4792;4049;-4869;193
544977;2;18;2;1077;1203;629;3869;3246;-4263;106
544987;2;18;2;1077;1473;430;3202;2309;-4064;-45
544997;2;18;2;1077;1768;459;3008;1960;-4520;-295
545007;2;18;2;1077;1961;891;3279;2244;-5044;-356
545017;2;18;2;1077;2104;1233;4333;3039;-5288;-369
545027;2;18;2;1077;2213;1422;4932;4207;-4827;-822
545037;2;18;2;1077;2264;1437;4652;4155;-3618;-1635
545047;2;18;2;1077;2296;1284;4637;3463;-2762;-2305
545057;2;18;2;1077;2185;1322;4333;3913;-2171;-2606
545067;2;18;2;1077;1947;1451;3735;4642;-1609;-2641
545077;2;18;2;1077;1762;1547;3160;4868;-1275;-2504
545087;2;18;2;1077;1794;1499;2753;4444;-1423;-2267
545097;2;18;2;1077;1784;1824;2665;3902;-2215;-1562
545107;2;18;2;1077;1910;1689;2843;3790;-3251;-722
545117;2;18;2;1077;1941;1717;3503;3991;-3915;-505
545127;2;18;2;1077;1912;1872;4526;5079;-4141;-539
545137;2;18;2;1077;1799;1911;5161;6761;-3825;-665
545147;2;18;2;1077;1686;1776;4603;7022;-3070;-735
545157;2;18;2;1077;1670;1426;3850;5534;-2431;-651
545167;2;18;2;1077;1773;1129;3381;4562;-2109;-370
545177;2;18;2;1077;1727;1182;2843;4915;-2213;-22
545187;2;18;2;1077;1570;1362;2279;5375;-2832;644
545197;2;18;2;1077;1660;1328;1883;5412;-3631;1403
545207;2;18;2;1077;1785;1549;2069;5330;-3675;1529
545217;2;18;2;1077;1914;1947;3275;5795;-3336;1208
545227;2;18;2;1077;2021;2253;4364;7011;-3149;812
545237;2;18;2;1077;2117;2281;4375;7693;-2835;412
545247;2;18;2;1077;2083;2080;3774;6709;-2467;132
545257;2;18;2;1077;1941;1788;3115;4968;-2470;50
545267;2;18;2;1077;1833;1580;2712;3936;-2838;229
545277;2;18;2;1077;1702;1530;2403;4019;-3266;447
545287;2;18;2;1077;1483;1672;2166;4578;-3450;592
545297;2;18;2;1077;1321;1915;2165;4747;-2977;563
545307;2;18;2;1077;1295;2287;2641;4733;-2161;235
545317;2;18;2;1077;1302;2603;3140;4922;-1778;151
545327;2;18;2;1077;1531;2756;3330;5066;-1855;335
545337;2;18;2;1077;1812;2797;3343;5358;-1837;325
545347;2;18;2;1077;2078;2746;3174;5662;-1577;156
545357;2;18;2;1077;2293;2563;2627;5248;-1360;-110
545367;2;18;2;1077;2272;2469;2215;4146;-1567;-338
545377;2;18;2;1077;2164;2436;1924;3315;-1923;-411
545387;2;18;2;1077;2145;2389;1859;2969;-1837;-696
545397;2;18;2;1077;2111;2487;1988;2556;-1574;-1253
545407;2;18;2;1077;2040;2735;2372;2036;-1660;-1572
545417;2;18;2;1077;1917;2800;2613;1755;-2320;-1625
545427;2;18;2;1078;1771;2883;2775;1894;-3060;-1605
545437;2;18;2;1078;1713;2940;2693;2512;-3306;-1587
545447;2;18;2;1078;1969;2818;2715;3418;-3097;-1600
545457;2;18;2;1078;2164;2939;2795;4348;-3084;-2089
545467;2;18;2;1078;2017;3278;2746;5129;-3504;-2159
545477;2;18;2;1078;1982;3275;2599;5930;-4108;-1870
545487;2;18;2;1078;2030;3171;2335;6808;-4268;-1639
545497;2;18;2;1078;2114;3159;2092;7455;-3992;-1501
545507;2;18;2;1078;2203;3149;1890;7561;-3577;-1480
545517;2;18;2;1078;2350;3085;1686;7067;-2935;-1724
545527;2;18;2;1078;2436;3177;1715;6373;-1960;-2131
545537;2;18;2;1078;2473;3206;2049;5920;-1304;-2440
545547;2;18;2;1078;2402;3221;2400;6186;-1145;-2568
545557;2;18;2;1078;2047;3372;2558;7130;-1570;-2376
545567;2;18;2;1078;1683;3436;2487;8366;-2504;-1741
545577;2;18;2;1078;1485;3357;2039;9555;-3540;-845
545587;2;18;2;1078;1370;3250;1477;9954;-4215;-41
545597;2;18;2;1078;1421;3302;862;9468;-4448;359
545607;2;18;2;1078;1603;3386;482;8494;-4244;493
545617;2;18;2;1078;1821;3481;280;7633;-3828;402
545627;2;18;2;1078;1907;3577;174;7014;-3343;210
545637;2;18;2;1078;1908;3585;-96;6796;-2894;53
545647;2;18;2;1078;1962;3541;-351;6830;-2381;-142
545657;2;18;2;1078;2119;3315;-499;6923;-2015;-350
545667;2;18;2;1078;2169;3153;-725;6728;-1820;-702
545677;2;18;2;1078;2024;3184;-804;5829;-1695;-842
545687;2;18;2;1078;1797;3215;-665;4265;-1805;-696
545697;2;18;2;1078;1587;3396;-273;2705;-2161;-407
545707;2;18;2;1078;1504;3651;104;1894;-2710;150
545717;2;18;2;1078;1639;3812;292;1962;-2964;773
545727;2;18;2;1078;1826;3878;414;2207;-2788;1164
545737;2;18;2;1078;2123;3785;574;2585;-2396;981
545747;2;18;2;1078;2414;3840;552;3506;-2147;594
545757;2;18;2;1078;2689;3854;314;4643;-1986;316
545767;2;18;2;1078;2948;3691;-39;5389;-2078;-76
545777;2;18;2;1078;3123;3464;-356;5431;-2332;-650
545787;2;18;2;1078;3097;3441;-589;4859;-2720;-1178
545797;2;18;2;1078;2805;3558;-709;3600;-3200;-1329
545807;2;18;2;1078;2458;3521;-353;1194;-3292;-1527
545817;2;18;2;1078;2242;3679;-51;491;-3217;-1651
545827;2;18;2;1078;1963;3840;491;210;-2971;-1535
545837;2;18;2;1078;1795;3864;965;967;-2779;-1356
545847;2;18;2;1078;1714;3828;1250;2381;-2762;-1011
545857;2;18;2;1078;1793;3774;1304;3961;-2922;-670
545867;2;18;2;1078;1867;3798;1075;5127;-3261;-530
545877;2;18;2;1078;1981;4001;722;5814;-3408;-604
545887;2;18;2;1078;2096;4128;494;6289;-3501;-813
545897;2;18;2;1078;2051;4250;194;6824;-3451;-1004
545907;2;18;2;1078;2085;4132;35;7477;-3017;-1336
545917;2;18;2;1078;2028;4005;44;8456;-2619;-1648
545927;2;18;2;1079;2013;3738;26;9489;-2404;-1714
545937;2;18;2;1079;1939;3530;27;10068;-2274;-1859
545947;2;18;2;1079;1841;3463;151;10405;-2435;-1663
545957;2;18;2;1079;2038;2614;164;11273;-2798;-1614
545967;2;18;2;1079;2113;2584;-268;12598;-3066;-2129
545977;2;18;2;1079;2207;2959;-1041;12826;-3366;-1951
545987;2;18;2;1079;2413;2972;-1697;11667;-2954;-2136
545997;2;18;2;1079;2314;3184;-1818;10304;-2049;-2665
546007;2;18;2;1079;2022;3372;-1743;9685;-1359;-2956
546017;2;18;2;1079;1740;3502;-1608;9547;-994;-2938
546027;2;18;2;1079;1604;3313;-1419;9609;-735;-2739
546037;2;18;2;1079;1653;3118;-1347;9901;-530;-2615
546047;2;18;2;1079;1701;3059;-1584;10251;-445;-2655
546057;2;18;2;1079;1829;3047;-1927;10301;-235;-2702
546067;2;18;2;1079;2094;2994;-2297;9956;82;-2919
546077;2;18;2;1079;2254;3089;-2739;9290;423;-3426
546087;2;18;2;1079;2257;3208;-3057;8727;768;-3864
546097;2;18;2;1079;2306;3091;-3355;8398;1072;-4138
546107;2;18;2;1079;2305;3064;-3580;8113;1279;-4401
546117;2;18;2;1079;2251;3078;-3616;7174;1035;-4329
546127;2;18;2;1079;2051;2980;-3520;5469;223;-4013
546137;2;18;2;1079;1779;3113;-3483;3329;-746;-3587
546147;2;18;2;1079;1773;3165;-3510;1003;-1480;-3073
546157;2;18;2;1079;1794;3216;-3104;-1124;-1456;-3085
546167;2;18;2;1079;1694;3567;-2591;-2398;-1542;-2981
546177;2;18;2;1079;1663;3776;-2340;-2818;-1818;-2697
546187;2;18;2;1079;1719;3677;-2256;-2694;-1999;-2615
546197;2;18;2;1079;1840;3466;-2316;-2127;-1567;-3064
546207;2;18;2;1079;1568;3547;-2271;-1385;-1035;-3352
546217;2;18;2;1079;1426;3451;-2466;-884;-699;-3246
546227;2;18;2;1079;1230;3408;-2672;-916;-557;-2928
546237;2;18;2;1079;1130;3445;-2973;-1701;-724;-2175
546247;2;18;2;1079;1169;3377;-3263;-2962;-940;-1290
546257;2;18;2;1079;1216;3334;-3480;-4567;-900;-570
546267;2;18;2;1079;1272;3344;-3520;-6366;-431;72
546277;2;18;2;1079;1282;3283;-3315;-7807;460;590
546287;2;18;2;1079;1345;3250;-2870;-8741;1338;907
546297;2;18;2;1079;1525;3102;-2341;-9176;1965;1082
546307;2;18;2;1079;1690;3032;-1780;-8996;2298;1052
546317;2;18;2;1079;1679;3170;-1518;-8413;2107;1164
546327;2;18;2;1079;1725;3198;-1458;-7770;1857;1311
546337;2;18;2;1079;1748;3126;-1455;-7230;1671;1397
546347;2;18;2;1079;1818;3088;-1437;-6697;1439;1343
546357;2;18;2;1079;1848;3054;-1475;-6160;1033;1386
546367;2;18;2;1079;1825;2949;-1516;-5753;551;1560
546377;2;18;2;1079;1813;2837;-1603;-5566;161;1812
546387;2;18;2;1079;1752;2797;-1796;-5684;130;1962
546397;2;18;2;1079;1599;2841;-1781;-5964;510;2085
546407;2;18;2;1079;1501;2922;-1621;-6085;1097;2281
546417;2;18;2;1079;1599;2784;-1334;-5977;1682;2240
546427;2;18;2;1080;1635;3033;-1274;-5490;2088;1889
546437;2;18;2;1080;1690;3328;-1285;-4862;2349;1714
546447;2;18;2;1080;1812;3231;-1307;-4045;2519;1580
546457;2;18;2;1080;1902;3181;-1402;-3269;2735;1269
546467;2;18;2;1080;1936;3203;-1428;-2941;2805;1038
546477;2;18;2;1080;2180;2957;-1444;-2783;2469;782
546487;2;18;2;1080;2357;2862;-1626;-2623;2010;385
546497;2;18;2;1080;2281;2789;-1852;-2635;1754;11
546507;2;18;2;1080;2134;2570;-1772;-2941;1904;-391
546517;2;18;2;1080;1885;2580;-1456;-3367;2162;-828
546527;2;18;2;1080;1536;2617;-970;-3470;2165;-771
546537;2;18;2;1080;1365;2446;-650;-3043;2065;-655
546547;2;18;2;1080;1344;2438;-556;-2299;1952;-685
546557;2;18;2;1080;1316;2648;-715;-1524;1829;-523
546567;2;18;2;1080;1372;2673;-849;-1041;1611;-258
546577;2;18;2;1080;1457;2611;-969;-702;1310;-135
546587;2;18;2;1080;1486;2587;-1053;-335;852;35
546597;2;18;2;1080;1503;2511;-1167;-108;317;392
546607;2;18;2;1080;1527;2394;-1325;-91;-83;769
546617;2;18;2;1080;1543;2282;-1438;-86;-228;1091
546627;2;18;2;1080;1599;2245;-1657;-40;-215;1411
546637;2;18;2;1080;1650;2273;-1916;-16;-6;1670
546647;2;18;2;1080;1650;2227;-1998;-164;359;1919
546657;2;18;2;1080;1766;2304;-2072;-685;705;2019
546667;2;18;2;1080;1841;2602;-2083;-1455;1038;2081
546677;2;18;2;1080;1926;3020;-1798;-2206;1118;2115
546687;2;18;2;1080;1922;3422;-1301;-2564;685;2136
546697;2;18;2;1080;1808;3870;-733;-2062;-183;2135
546707;2;18;2;1080;1561;4259;-308;-563;-1440;2258
546717;2;18;2;1080;1348;4709;-234;1690;-2871;2517
546727;2;18;2;1080;1278;5056;-405;4061;-4432;2846
546737;2;18;2;1080;1216;5536;-932;6014;-6010;2960
546747;2;18;2;1080;916;6305;-1690;7295;-7521;2996
546757;2;18;2;1080;844;6301;-2605;8066;-8427;2282
546767;2;18;2;1080;1519;5626;-3719;10219;-7823;-120
546777;2;18;2;1080;2529;4935;-4702;14012;-6212;-2782
546787;2;18;2;1080;3545;3932;-5644;16685;-4770;-4759
546797;2;18;2;1080;4048;3363;-6123;15893;-4654;-6132
546807;2;18;2;1080;4033;3134;-5757;11718;-6209;-6714
546817;2;18;2;1080;3554;3181;-4975;5756;-8468;-6951
546827;2;18;2;1080;2407;3671;-3735;552;-10345;-7196
546837;2;18;2;1080;1490;4369;-2955;-1592;-11174;-7215
546847;2;18;2;1080;568;4954;-2245;-426;-10443;-6647
546857;2;18;2;1080;-79;5349;-1992;2469;-9249;-5482
546867;2;18;2;1080;-185;5590;-2559;5149;-7853;-4104
546877;2;18;2;1080;242;5470;-3745;6595;-5979;-3194
546887;2;18;2;1080;1038;5215;-5108;6975;-3416;-2851
546897;2;18;2;1080;1944;4734;-6070;6478;-159;-3056
546907;2;18;2;1080;2626;4474;-6156;4786;2700;-3840
546917;2;18;2;1080;2958;4310;-5554;2507;4057;-4382
546927;2;18;2;1081;3010;4214;-4705;390;3821;-4392
546937;2;18;2;1081;2725;4257;-3990;-1407;2867;-4094
546947;2;18;2;1081;2066;4503;-3390;-2405;1830;-3633
546957;2;18;2;1081;1101;5045;-2959;-2756;752;-2408
546967;2;18;2;1081;684;5281;-2738;-2550;184;-1344
546977;2;18;2;1081;629;5163;-2803;-1347;199;-434
546987;2;18;2;1081;776;4849;-3243;235;923;-155
546997;2;18;2;1081;1040;4472;-3934;1784;2397;-572
547007;2;18;2;1081;1373;4193;-4638;2436;4302;-1262
547017;2;18;2;1081;1767;3721;-4937;1949;6310;-2060
547027;2;18;2;1081;1985;3580;-4666;373;7417;-2954
547037;2;18;2;1081;1989;3554;-3990;-1779;7124;-3548
547047;2;18;2;1081;1952;3510;-3228;-3396;5980;-3783
547057;2;18;2;1081;1729;3456;-2563;-3952;4650;-3768
547067;2;18;2;1081;1377;3277;-2067;-3591;3600;-3831
547077;2;18;2;1081;1055;3144;-1768;-2668;2977;-4115
547087;2;18;2;1081;773;2940;-1565;-1436;2680;-4257
547097;2;18;2;1081;565;2512;-1432;-27;2441;-4374
547107;2;18;2;1081;388;2194;-1578;1169;2280;-4479
547117;2;18;2;1081;130;1980;-1675;1758;2298;-4467
547127;2;18;2;1081;-249;1869;-1818;1804;2255;-4295
547137;2;18;2;1081;-542;1949;-2124;1462;2331;-3803
547147;2;18;2;1081;-593;2048;-2303;796;2674;-3140
547157;2;18;2;1081;-461;2002;-2324;-73;3185;-2677
547167;2;18;2;1081;-362;2029;-2147;-797;3868;-2552
547177;2;18;2;1081;-387;2139;-1736;-994;4417;-2424
547187;2;18;2;1081;-363;2153;-1356;-555;4495;-2193
547197;2;18;2;1081;-447;2261;-1212;418;4057;-1763
547207;2;18;2;1081;-666;2291;-1387;1340;3260;-962
547217;2;18;2;1081;-879;2358;-1866;1548;2651;-82
547227;2;18;2;1081;-1094;2716;-2457;830;2315;909
547237;2;18;2;1081;-957;2858;-3129;-360;2590;1760
547247;2;18;2;1081;-575;2915;-3664;-1584;3626;2042
547257;2;18;2;1081;-124;3164;-3980;-3283;4948;2033
547267;2;18;2;1081;316;3161;-3654;-5231;6152;1576
547277;2;18;2;1081;728;3097;-2918;-6687;6641;854
547287;2;18;2;1081;994;3206;-2201;-7393;6420;115
547297;2;18;2;1081;929;3257;-1431;-7647;5638;-401
547307;2;18;2;1081;710;3241;-698;-7617;4529;-802
547317;2;18;2;1081;433;3113;-155;-7275;3333;-1153
547327;2;18;2;1081;88;3084;165;-6796;2495;-1352
547337;2;18;2;1081;-245;3162;440;-6048;1945;-1186
547347;2;18;2;1081;-521;3260;541;-4986;1589;-738
547357;2;18;2;1081;-552;3333;377;-4074;1638;-235
547367;2;18;2;1081;-194;3423;89;-3648;2401;-117
547377;2;18;2;1081;145;3472;-92;-3603;3805;-485
547387;2;18;2;1081;573;3414;-1;-3308;5289;-1244
547397;2;18;2;1081;923;3330;29;-2350;6371;-2115
547407;2;18;2;1081;1062;3115;124;-1158;6994;-2912
547417;2;18;2;1081;1098;2944;207;-521;6888;-3350
547427;2;18;2;1082;1020;2810;483;-474;6087;-3749
547437;2;18;2;1082;735;2708;800;-543;4649;-3958
547447;2;18;2;1082;371;2644;996;-111;2740;-4014
547457;2;18;2;1082;-30;2963;822;900;762;-3692
547467;2;18;2;1082;-178;3006;360;2377;-808;-3020
547477;2;18;2;1082;-161;2759;-497;4196;-1537;-2630
547487;2;18;2;1082;-195;2595;-1550;5520;-1075;-2632
547497;2;18;2;1082;-76;2468;-2339;5406;142;-2717
547507;2;18;2;1082;56;2432;-2731;3784;1481;-2761
547517;2;18;2;1082;84;2513;-2565;1258;2428;-2596
547527;2;18;2;1082;120;2686;-2029;-1356;2628;-2029
547537;2;18;2;1082;214;2877;-1454;-3359;2352;-1297
547547;2;18;2;1082;148;3124;-902;-4403;1934;-690
547557;2;18;2;1082;48;3355;-445;-4379;1705;-131
547567;2;18;2;1082;23;3424;-109;-3336;1775;339
547577;2;18;2;1082;45;3387;144;-1745;1940;596
547587;2;18;2;1082;102;3349;140;-141;1933;763
547597;2;18;2;1082;202;3341;-198;1049;2025;911
547607;2;18;2;1082;320;3271;-521;1632;2255;1007
547617;2;18;2;1082;398;3201;-723;1529;2582;917
547627;2;18;2;1082;424;3446;-787;896;2869;793
547637;2;18;2;1082;364;3717;-625;96;3037;722
547647;2;18;2;1082;363;3908;-478;-213;3162;610
547657;2;18;2;1082;319;4231;-363;95;3446;477
547667;2;18;2;1082;269;4487;-316;810;3687;531
547677;2;18;2;1082;326;4602;-452;1542;3826;580
547687;2;18;2;1082;523;4726;-817;2326;4151;554
547697;2;18;2;1082;649;4773;-1128;2951;4494;473
547707;2;18;2;1082;768;4710;-1444;3289;4623;496
547717;2;18;2;1082;975;4641;-1672;3339;4444;572
547727;2;18;2;1082;1218;4589;-2119;2945;4297;469
547737;2;18;2;1082;1474;4581;-2474;2187;4609;-157
547747;2;18;2;1082;1824;4509;-2583;1716;5125;-1083
547757;2;18;2;1082;2225;4299;-2512;2128;5616;-2095
547767;2;18;2;1082;2378;4226;-2235;2773;5576;-3237
547777;2;18;2;1082;2247;4204;-1885;3272;4670;-4195
547787;2;18;2;1082;2030;4299;-1764;4045;3337;-4791
547797;2;18;2;1082;1688;4428;-1801;5185;1947;-4756
547807;2;18;2;1082;1377;4397;-2116;6519;771;-4383
547817;2;18;2;1082;1203;4219;-2615;7612;107;-3734
547827;2;18;2;1082;1279;3863;-3287;8168;102;-3111
547837;2;18;2;1082;1479;3712;-3992;7907;730;-2683
547847;2;18;2;1082;1776;3523;-4410;6953;1715;-2193
547857;2;18;2;1082;2143;3207;-4458;5548;2725;-1905
547867;2;18;2;1082;2404;3063;-4246;3914;3324;-1860
547877;2;18;2;1082;2468;2991;-3837;2510;3500;-1850
547887;2;18;2;1082;2481;2827;-3313;1715;3348;-1851
547897;2;18;2;1082;2371;2698;-2850;1557;2967;-1801
547907;2;18;2;1082;2263;2500;-2489;1754;2474;-1672
547917;2;18;2;1082;2128;2357;-2257;1999;1978;-1454
547927;2;18;2;1083;2039;2157;-2128;2152;1470;-1122
547937;2;18;2;1083;1861;2095;-2120;2118;1122;-927
547947;2;18;2;1083;1645;2128;-1992;1889;966;-712
547957;2;18;2;1083;1419;2066;-1737;1739;747;-420
547967;2;18;2;1083;1382;1917;-1597;1925;555;-259
547977;2;18;2;1083;1350;2112;-1611;2169;626;-335
547987;2;18;2;1083;1257;2344;-1577;2271;709;-284
547997;2;18;2;1083;1161;2381;-1442;2580;756;-157
548007;2;18;2;1083;1067;2240;-1330;3294;706;-140
548017;2;18;2;1083;1179;2275;-1635;4200;750;-322
548027;2;18;2;1083;1369;2674;-2205;4695;1123;-576
548037;2;18;2;1083;1459;2755;-2445;4865;1391;-772
548047;2;18;2;1083;1451;2668;-2536;4906;1210;-881
548057;2;18;2;1083;1339;2695;-2649;4467;715;-793
548067;2;18;2;1083;1107;2658;-2638;3534;247;-555
548077;2;18;2;1083;888;2641;-2458;2617;-77;-280
548087;2;18;2;1083;845;2721;-2465;2306;-283;33
548097;2;18;2;1083;885;2850;-2811;2602;52;54
548107;2;18;2;1083;877;2898;-2891;3041;618;-14
548117;2;18;2;1083;871;2918;-2917;3168;863;150
548127;2;18;2;1083;903;2871;-2928;2856;726;543
548137;2;18;2;1083;1137;2762;-3086;2343;324;1023
548147;2;18;2;1083;1504;2591;-3487;1834;204;1134
548157;2;18;2;1083;1660;2691;-3761;1217;535;921
548167;2;18;2;1083;1817;2715;-3740;309;958;704
548177;2;18;2;1083;1858;2691;-3378;-542;1054;397
548187;2;18;2;1083;1870;2710;-3024;-922;796;115
548197;2;18;2;1083;1784;2803;-2702;-904;367;-90
548207;2;18;2;1083;1653;2803;-2483;-613;-106;-180
548217;2;18;2;1083;1488;2734;-2366;-14;-457;-178
548227;2;18;2;1083;1380;2630;-2377;635;-683;-90
548237;2;18;2;1083;1289;2535;-2464;933;-800;28
548247;2;18;2;1083;1281;2394;-2558;957;-837;157
548257;2;18;2;1083;1334;2312;-2654;935;-737;205
548267;2;18;2;1083;1357;2273;-2780;830;-536;201
548277;2;18;2;1083;1376;2269;-2762;688;-356;144
548287;2;18;2;1083;1402;2235;-2785;636;-321;199
548297;2;18;2;1083;1384;2213;-2788;533;-259;263
548307;2;18;2;1083;1309;2261;-2851;327;-149;318
548317;2;18;2;1083;1295;2326;-2833;72;84;380
548327;2;18;2;1083;1264;2438;-2729;-68;221;477
548337;2;18;2;1083;1213;2544;-2691;-105;271;689
548347;2;18;2;1083;1212;2647;-2649;-62;365;906
548357;2;18;2;1083;1300;2784;-2677;33;423;1157
548367;2;18;2;1083;1441;2845;-2802;199;514;1219
548377;2;18;2;1083;1599;2873;-2976;540;664;1167
548387;2;18;2;1083;1697;2878;-3103;691;729;1053
548397;2;18;2;1083;1764;2888;-3207;480;665;982
548407;2;18;2;1083;1807;2939;-3237;121;585;848
548417;2;18;2;1083;1797;3023;-3185;-180;465;770
