timestamp;subject_id;activity;label;seq;ax;ay;az;gx;gy;gz
486427;2;18;2;960;1637;3278;-2238;-1131;42;-199
486437;2;18;2;960;1699;3282;-2244;-1079;-6;-227
486447;2;18;2;960;1731;3267;-2205;-1043;-57;-233
486457;2;18;2;960;1716;3285;-2156;-1053;-241;-212
486467;2;18;2;960;1708;3289;-2207;-1120;-399;-174
486477;2;18;2;960;1699;3240;-2371;-1165;-234;-243
486487;2;18;2;960;1702;3300;-2272;-1236;86;-379
486497;2;18;2;960;1716;3348;-2119;-1334;129;-370
486507;2;18;2;960;1701;3386;-2067;-1462;-24;-276
486517;2;18;2;960;1671;3380;-2092;-1519;-69;-225
486527;2;18;2;960;1660;3354;-2196;-1560;26;-238
486537;2;18;2;960;1626;3315;-2154;-1578;260;-499
486547;2;18;2;960;1675;3457;-2180;-1555;308;-605
486557;2;18;2;960;1705;3449;-2118;-1464;328;-363
486567;2;18;2;960;1771;3445;-2126;-1778;100;-219
486577;2;18;2;960;1807;3480;-2052;-2136;-123;-187
486587;2;18;2;960;1853;3488;-2118;-2243;-201;-178
486597;2;18;2;960;1884;3468;-2127;-2275;-171;-264
486607;2;18;2;960;1936;3435;-2129;-2273;-37;-479
486617;2;18;2;960;2047;3442;-1996;-2217;-32;-720
486627;2;18;2;960;2054;3485;-1896;-2185;-275;-917
486637;2;18;2;960;2050;3364;-1837;-2270;-640;-1005
486647;2;18;2;960;1980;3304;-1844;-1903;-879;-1321
486657;2;18;2;960;1815;3295;-1968;-1606;-951;-1497
486667;2;18;2;960;1642;3226;-1815;-1252;-988;-1507
486677;2;18;2;960;1554;3238;-1866;-1324;-1138;-1513
486687;2;18;2;960;1466;3215;-1849;-1610;-1224;-1339
486697;2;18;2;960;1365;3239;-1825;-2013;-1219;-1247
486707;2;18;2;960;1281;3254;-1808;-2326;-1248;-1014
486717;2;18;2;960;1214;3257;-1676;-2572;-1260;-712
486727;2;18;2;960;1239;3162;-1795;-2737;-1183;-683
486737;2;18;2;960;1205;3244;-1839;-3112;-843;-635
486747;2;18;2;960;1281;3295;-1833;-3315;-516;-638
486757;2;18;2;960;1353;3402;-1686;-3531;-383;-509
486767;2;18;2;960;1476;3434;-1658;-3598;-473;-445
486777;2;18;2;960;1517;3459;-1585;-3633;-680;-398
486787;2;18;2;960;1522;3458;-1636;-3667;-874;-360
486797;2;18;2;960;1495;3510;-1544;-3820;-1019;-375
486807;2;18;2;960;1488;3618;-1415;-4029;-1250;-303
486817;2;18;2;960;1498;3624;-1299;-4184;-1553;-195
486827;2;18;2;960;1498;3595;-1288;-4290;-1811;-158
486837;2;18;2;960;1532;3629;-1469;-4160;-1926;-248
486847;2;18;2;960;1551;3623;-1575;-3915;-1910;-313
486857;2;18;2;960;1530;3584;-1673;-3786;-1901;-344
486867;2;18;2;960;1508;3594;-1634;-3969;-1976;-298
486877;2;18;2;960;1480;3554;-1572;-4238;-2138;-187
486887;2;18;2;960;1468;3588;-1429;-4643;-2361;-115
486897;2;18;2;960;1479;3599;-1451;-4867;-2466;-123
486907;2;18;2;960;1469;3610;-1501;-5404;-2457;-200
486917;2;18;2;960;1521;3597;-1473;-5296;-2291;-373
486927;2;18;2;961;1494;3681;-1235;-5105;-2054;-481
486937;2;18;2;961;1504;3732;-1161;-4766;-1958;-575
486947;2;18;2;961;1521;3685;-1049;-5112;-1944;-572
486957;2;18;2;961;1599;3699;-965;-4998;-1928;-736
486967;2;18;2;961;1621;3795;-927;-4949;-1752;-843
486977;2;18;2;961;1682;3866;-857;-4673;-1544;-1007
486987;2;18;2;961;1747;3872;-796;-4611;-1565;-1084
486997;2;18;2;961;1774;3914;-763;-5013;-1745;-1201
487007;2;18;2;961;1723;3968;-671;-4914;-1841;-1361
487017;2;18;2;961;1647;3966;-700;-4712;-1915;-1599
487027;2;18;2;961;1521;4005;-649;-4490;-1977;-1664
487037;2;18;2;961;1443;3959;-636;-4084;-2135;-1732
487047;2;18;2;961;1396;3896;-659;-3900;-2388;-1600
487057;2;18;2;961;1354;3802;-728;-3561;-2483;-1739
487067;2;18;2;961;1308;3761;-733;-3409;-2458;-1768
487077;2;18;2;961;1199;3700;-737;-3315;-2308;-1909
487087;2;18;2;961;1236;3566;-732;-3288;-2188;-1891
487097;2;18;2;961;1236;3630;-673;-3610;-2070;-1983
487107;2;18;2;961;1338;3660;-559;-3729;-2144;-1885
487117;2;18;2;961;1462;3683;-557;-3697;-2247;-1797
487127;2;18;2;961;1560;3785;-496;-3699;-2353;-1838
487137;2;18;2;961;1644;3784;-388;-3633;-2606;-1745
487147;2;18;2;961;1617;3855;-287;-3568;-2923;-1675
487157;2;18;2;961;1563;3889;-201;-3475;-3229;-1623
487167;2;18;2;961;1365;3909;-31;-3122;-3393;-1449
487177;2;18;2;961;1405;3726;41;-2949;-3445;-1514
487187;2;18;2;961;1259;3881;104;-3185;-3242;-1766
487197;2;18;2;961;1116;3993;156;-2765;-3083;-1755
487207;2;18;2;961;1247;3836;150;-2173;-3245;-1681
487217;2;18;2;961;1270;3973;-117;-1620;-3639;-1664
487227;2;18;2;961;1258;3776;-378;-1195;-3955;-1529
487237;2;18;2;961;1164;3649;-454;-833;-4108;-1438
487247;2;18;2;961;1051;3604;-588;-602;-4186;-1501
487257;2;18;2;961;874;3575;-450;-788;-4311;-1183
487267;2;18;2;961;911;3597;-333;-786;-4677;-975
487277;2;18;2;961;989;3567;-377;-783;-5059;-690
487287;2;18;2;961;1075;3495;-417;-748;-5363;-554
487297;2;18;2;961;1139;3440;-547;-734;-5653;-436
487307;2;18;2;961;1178;3332;-679;-800;-5933;-371
487317;2;18;2;961;1058;3332;-726;-772;-6230;-311
487327;2;18;2;961;963;3362;-819;-361;-6482;-156
487337;2;18;2;961;933;3411;-817;322;-6601;20
487347;2;18;2;961;1013;3558;-853;747;-6544;132
487357;2;18;2;961;1089;3748;-791;786;-6385;196
487367;2;18;2;961;1208;3976;-707;593;-6329;224
487377;2;18;2;961;1271;4204;-625;389;-6199;194
487387;2;18;2;961;1216;4448;-535;552;-6191;91
487397;2;18;2;961;1125;4529;-641;957;-6080;-86
487407;2;18;2;961;904;4645;-791;1406;-6015;-216
487417;2;18;2;961;568;4821;-824;1817;-6069;-135
487427;2;18;2;962;322;4945;-989;1904;-6278;84
487437;2;18;2;962;206;5082;-1073;1546;-6602;500
487447;2;18;2;962;140;5189;-1161;1033;-6754;524
487457;2;18;2;962;247;5467;-893;918;-6713;573
487467;2;18;2;962;337;5270;-700;885;-6684;603
487477;2;18;2;962;255;4999;-591;295;-6527;511
487487;2;18;2;962;150;4797;-338;-364;-6173;323
487497;2;18;2;962;12;4574;-139;-443;-5674;151
487507;2;18;2;962;-145;4370;-144;55;-5033;-17
487517;2;18;2;962;-217;4333;-129;806;-4368;-137
487527;2;18;2;962;-75;4426;-45;1387;-3973;-229
487537;2;18;2;962;-81;4618;102;1582;-4091;-137
487547;2;18;2;962;-138;4727;44;1185;-4710;-7
487557;2;18;2;962;-416;4949;-41;770;-5277;22
487567;2;18;2;962;-645;4891;-32;559;-5743;513
487577;2;18;2;962;-769;4783;-429;556;-6047;663
487587;2;18;2;962;-735;4532;-866;371;-5880;577
487597;2;18;2;962;-465;4266;-856;-134;-5485;364
487607;2;18;2;962;-266;4182;-440;-589;-5452;264
487617;2;18;2;962;-174;3993;87;-630;-5683;346
487627;2;18;2;962;-37;3772;303;-379;-6079;423
487637;2;18;2;962;40;3475;448;-143;-6357;450
487647;2;18;2;962;175;3248;482;-81;-6514;393
487657;2;18;2;962;328;3246;446;-203;-6617;182
487667;2;18;2;962;383;3432;429;-380;-6671;108
487677;2;18;2;962;405;3554;401;-394;-6693;60
487687;2;18;2;962;356;3590;221;-259;-6684;-91
487697;2;18;2;962;325;3683;71;29;-6577;-264
487707;2;18;2;962;244;3892;-104;309;-6454;-345
487717;2;18;2;962;280;4036;-323;497;-6344;-292
487727;2;18;2;962;287;4157;-421;537;-6339;-182
487737;2;18;2;962;295;4253;-541;329;-6361;7
487747;2;18;2;962;309;4270;-437;-16;-6390;222
487757;2;18;2;962;242;4313;-357;-464;-6624;479
487767;2;18;2;962;161;4277;-358;-747;-6727;754
487777;2;18;2;962;123;4260;-340;-775;-6700;1013
487787;2;18;2;962;138;4274;-372;-730;-6613;1243
487797;2;18;2;962;193;4279;-469;-837;-6495;1438
487807;2;18;2;962;181;4320;-607;-1067;-6335;1575
487817;2;18;2;962;180;4270;-688;-1350;-6169;1664
487827;2;18;2;962;130;4214;-651;-1552;-5866;1616
487837;2;18;2;962;177;4243;-621;-1534;-5714;1551
487847;2;18;2;962;122;4280;-518;-1621;-5585;1579
487857;2;18;2;962;201;4201;-473;-1574;-5634;1621
487867;2;18;2;962;178;4145;-461;-1601;-5604;1628
487877;2;18;2;962;170;4060;-434;-1539;-5606;1624
487887;2;18;2;962;189;4031;-459;-1553;-5656;1626
487897;2;18;2;962;208;3946;-430;-1553;-5810;1633
487907;2;18;2;962;199;3895;-499;-1474;-5922;1571
487917;2;18;2;962;143;3850;-501;-1302;-6025;1574
487927;2;18;2;963;219;3843;-561;-1114;-6136;1585
487937;2;18;2;963;219;3823;-554;-933;-6212;1708
487947;2;18;2;963;187;3768;-605;-680;-6353;1830
487957;2;18;2;963;206;3741;-693;-345;-6506;1855
487967;2;18;2;963;276;3752;-808;-61;-6633;1852
487977;2;18;2;963;388;3681;-979;229;-6537;1912
487987;2;18;2;963;415;3677;-1002;456;-6431;1852
487997;2;18;2;963;422;3721;-979;469;-6421;1824
488007;2;18;2;963;387;3803;-873;277;-6410;1843
488017;2;18;2;963;412;3868;-787;70;-6438;1908
488027;2;18;2;963;470;3896;-757;136;-6339;1942
488037;2;18;2;963;596;3912;-762;445;-6114;1931
488047;2;18;2;963;754;3933;-769;765;-5953;1924
488057;2;18;2;963;927;3932;-855;1009;-5819;1917
488067;2;18;2;963;1001;3953;-907;929;-5641;1860
488077;2;18;2;963;1064;4003;-888;574;-5429;1782
488087;2;18;2;963;1052;4111;-764;200;-5219;1763
488097;2;18;2;963;1007;4208;-637;13;-5057;1813
488107;2;18;2;963;952;4261;-568;159;-4905;1853
488117;2;18;2;963;907;4298;-590;614;-4824;1939
488127;2;18;2;963;854;4240;-863;1012;-4806;2085
488137;2;18;2;963;853;4103;-1145;1016;-4756;2249
488147;2;18;2;963;901;3960;-1502;514;-4551;2268
488157;2;18;2;963;989;3810;-1592;-393;-4045;2112
488167;2;18;2;963;1193;3806;-1280;-1279;-3557;1886
488177;2;18;2;963;1442;3963;-731;-1807;-3348;1682
488187;2;18;2;963;1687;4108;-316;-1762;-3398;1500
488197;2;18;2;963;1776;4172;-164;-1149;-3424;1302
488207;2;18;2;963;1753;4144;-170;-315;-3429;1163
488217;2;18;2;963;1498;4081;-256;152;-3255;994
488227;2;18;2;963;1147;3997;-356;5;-2907;885
488237;2;18;2;963;926;4068;-232;-463;-2738;1103
488247;2;18;2;963;730;4051;-162;-927;-2429;1275
488257;2;18;2;963;779;4052;-223;-1014;-2009;1453
488267;2;18;2;963;1025;3976;-343;-714;-1321;1367
488277;2;18;2;963;1381;3989;-326;-302;-640;968
488287;2;18;2;963;1569;4043;-209;-62;-223;570
488297;2;18;2;963;1623;3995;-112;-279;-218;234
488307;2;18;2;963;1464;4007;89;-536;-378;-35
488317;2;18;2;963;1177;4011;323;-339;-590;-124
488327;2;18;2;963;912;3986;344;205;-847;-29
488337;2;18;2;963;743;3973;209;541;-933;80
488347;2;18;2;963;662;3914;134;800;-1023;253
488357;2;18;2;963;742;3930;-69;1096;-1064;302
488367;2;18;2;963;1004;4050;-375;1140;-1171;223
488377;2;18;2;963;1199;4141;-429;884;-1589;121
488387;2;18;2;963;1316;4277;-573;486;-2055;-47
488397;2;18;2;963;1234;4370;-464;141;-2633;-177
488407;2;18;2;963;1149;4386;-471;19;-3203;-221
488417;2;18;2;963;1028;4370;-385;-30;-3563;-230
488427;2;18;2;964;972;4371;-337;-246;-3931;-78
488437;2;18;2;964;955;4373;-310;-521;-4235;86
488447;2;18;2;964;1014;4295;-421;-729;-4555;323
488457;2;18;2;964;1107;4246;-511;-999;-4588;376
488467;2;18;2;964;1206;4202;-528;-1339;-4672;485
488477;2;18;2;964;1303;4102;-532;-1662;-4634;469
488487;2;18;2;964;1365;3976;-436;-1732;-4501;421
488497;2;18;2;964;1424;3867;-307;-1634;-4394;450
488507;2;18;2;964;1471;3779;-332;-1613;-4241;402
488517;2;18;2;964;1501;3682;-242;-1578;-3942;299
488527;2;18;2;964;1509;3643;-88;-1299;-3679;151
488537;2;18;2;964;1448;3690;51;-759;-3306;-9
488547;2;18;2;964;1356;3753;147;-333;-3017;-69
488557;2;18;2;964;1364;3821;92;-248;-2871;-59
488567;2;18;2;964;1378;3852;-108;-244;-2657;-120
488577;2;18;2;964;1374;3901;-241;-210;-2453;-233
488587;2;18;2;964;1363;3914;-314;-253;-2408;-362
488597;2;18;2;964;1288;3969;-419;-560;-2447;-436
488607;2;18;2;964;1163;3939;-533;-1031;-2394;-499
488617;2;18;2;964;1082;3971;-436;-1363;-2330;-562
488627;2;18;2;964;1049;4054;-347;-1627;-2390;-544
488637;2;18;2;964;1014;4112;-303;-1948;-2448;-550
488647;2;18;2;964;993;4161;-204;-2103;-2385;-600
488657;2;18;2;964;946;4251;-92;-1797;-2220;-681
488667;2;18;2;964;903;4355;-40;-1238;-2079;-734
488677;2;18;2;964;827;4327;-197;-841;-2120;-839
488687;2;18;2;964;592;4484;-538;-879;-2201;-689
488697;2;18;2;964;455;4266;-904;-1052;-2480;-586
488707;2;18;2;964;437;4143;-1221;-1278;-2965;-324
488717;2;18;2;964;230;4227;-1497;-2023;-3657;109
488727;2;18;2;964;0;4339;-1208;-2087;-3829;325
488737;2;18;2;964;40;4072;-834;-1174;-3383;143
488747;2;18;2;964;411;4143;-618;-696;-3106;-84
488757;2;18;2;964;905;4234;-359;-737;-3462;62
488767;2;18;2;964;1245;4228;-316;-666;-3952;29
488777;2;18;2;964;1318;4151;-520;-305;-4293;-248
488787;2;18;2;964;1086;3977;-916;-236;-4322;-554
488797;2;18;2;964;729;3883;-1063;-537;-4132;-733
488807;2;18;2;964;247;3854;-1005;-904;-3834;-738
488817;2;18;2;964;-56;3900;-835;-1107;-3623;-518
488827;2;18;2;964;-216;3970;-725;-1278;-3517;-112
488837;2;18;2;964;-82;3967;-717;-1395;-3448;284
488847;2;18;2;964;215;3914;-776;-1485;-3282;478
488857;2;18;2;964;523;3833;-724;-1448;-3036;389
488867;2;18;2;964;753;3766;-558;-1263;-2769;175
488877;2;18;2;964;904;3780;-473;-893;-2442;-137
488887;2;18;2;964;962;3760;-274;-560;-1950;-433
488897;2;18;2;964;913;3788;36;-286;-1624;-682
488907;2;18;2;964;818;3844;167;35;-1473;-811
488917;2;18;2;964;724;3922;130;543;-1172;-928
488927;2;18;2;965;658;3937;168;1127;-808;-1023
488937;2;18;2;965;494;4129;160;1812;-562;-991
488947;2;18;2;965;428;4074;-55;2175;-501;-806
488957;2;18;2;965;119;4089;-432;1478;-635;-395
488967;2;18;2;965;60;4065;-882;44;-880;101
488977;2;18;2;965;-27;4063;-1210;-1421;-811;399
488987;2;18;2;965;-26;4144;-1278;-2292;-488;531
488997;2;18;2;965;111;4170;-1151;-2487;-67;630
489007;2;18;2;965;233;4218;-926;-2268;495;601
489017;2;18;2;965;515;4167;-373;-1740;882;521
489027;2;18;2;965;792;4279;72;-1217;919;275
489037;2;18;2;965;816;4305;386;-867;899;304
489047;2;18;2;965;911;4091;536;-551;721;179
489057;2;18;2;965;877;4108;519;-217;750;-15
489067;2;18;2;965;767;4049;340;41;1027;-136
489077;2;18;2;965;579;3999;221;239;1416;-255
489087;2;18;2;965;459;3890;129;345;1809;-212
489097;2;18;2;965;509;3946;50;613;2033;-198
489107;2;18;2;965;547;3944;-68;917;2273;-225
489117;2;18;2;965;640;4068;-184;1005;2480;-122
489127;2;18;2;965;762;4096;-225;854;2510;43
489137;2;18;2;965;583;4192;-375;389;2634;70
489147;2;18;2;965;659;4054;-411;-405;2717;18
489157;2;18;2;965;496;4375;-138;-789;2935;90
489167;2;18;2;965;493;4129;-173;-479;2859;411
489177;2;18;2;965;358;4036;-296;-302;2978;514
489187;2;18;2;965;421;4146;-514;64;2950;948
489197;2;18;2;965;456;3923;-809;356;3308;1206
489207;2;18;2;965;571;3862;-1103;88;3709;1047
489217;2;18;2;965;759;4021;-924;-440;4068;1085
489227;2;18;2;965;852;4017;-765;-1030;4253;1003
489237;2;18;2;965;725;3966;-567;-1388;4580;814
489247;2;18;2;965;644;3975;-378;-1538;5020;610
489257;2;18;2;965;634;4040;-64;-1484;5299;572
489267;2;18;2;965;842;4159;185;-942;5306;628
489277;2;18;2;965;1053;4377;260;85;5266;588
489287;2;18;2;965;929;4553;105;1372;5200;584
489297;2;18;2;965;740;4601;-274;2186;5005;821
489307;2;18;2;965;388;4805;-881;2521;4588;1314
489317;2;18;2;965;235;4694;-1684;2733;4352;1886
489327;2;18;2;965;162;4620;-2235;2852;4614;2207
489337;2;18;2;965;436;4680;-2606;2184;5090;2202
489347;2;18;2;965;883;4544;-2630;620;5824;1832
489357;2;18;2;965;1303;4506;-2188;-1200;6357;1166
489367;2;18;2;965;1456;4324;-1629;-2773;6601;672
489377;2;18;2;965;1349;4186;-955;-3996;6773;324
489387;2;18;2;965;1188;4099;-369;-4557;6651;388
489397;2;18;2;965;1012;3948;17;-4133;6149;876
489407;2;18;2;965;888;3699;52;-3086;5579;1411
489417;2;18;2;965;833;3505;-90;-1854;5276;1806
489427;2;18;2;966;927;3351;-280;-859;5372;1903
489437;2;18;2;966;1103;3326;-423;-253;5788;1615
489447;2;18;2;966;1285;3508;-326;195;6211;1139
489457;2;18;2;966;1366;3730;-115;731;6421;671
489467;2;18;2;966;1415;3867;-30;1186;6363;269
489477;2;18;2;966;1379;3998;-27;1492;6145;-51
489487;2;18;2;966;1339;4049;-142;1865;5860;-189
489497;2;18;2;966;1317;4045;-288;2316;5677;-307
489507;2;18;2;966;1338;4020;-400;2406;5473;-385
489517;2;18;2;966;1359;4054;-409;2069;5230;-421
489527;2;18;2;966;1423;4069;-410;1411;4871;-394
489537;2;18;2;966;1457;4078;-411;518;4473;-380
489547;2;18;2;966;1394;4128;-325;-286;4099;-303
489557;2;18;2;966;1327;4090;-199;-755;3803;-226
489567;2;18;2;966;1197;4035;-69;-869;3473;12
489577;2;18;2;966;1248;4001;105;-919;3317;80
489587;2;18;2;966;1289;3993;148;-691;2985;314
489597;2;18;2;966;1365;3973;156;-141;2525;528
489607;2;18;2;966;1419;3850;-50;440;2082;747
489617;2;18;2;966;1526;3815;-256;602;1769;798
489627;2;18;2;966;1558;3783;-371;510;1515;888
489637;2;18;2;966;1582;3788;-279;79;1239;893
489647;2;18;2;966;1537;3811;-122;-360;677;1047
489657;2;18;2;966;1503;3877;70;-679;-50;1121
489667;2;18;2;966;1455;3883;133;-647;-886;1280
489677;2;18;2;966;1473;3827;44;-369;-1527;1358
489687;2;18;2;966;1498;3764;-138;-2;-1897;1438
489697;2;18;2;966;1578;3658;-342;175;-1816;1356
489707;2;18;2;966;1662;3606;-466;175;-1439;1185
489717;2;18;2;966;1769;3512;-450;121;-1062;985
489727;2;18;2;966;1796;3604;-438;-154;-867;747
489737;2;18;2;966;1760;3701;-548;-414;-767;674
489747;2;18;2;966;1757;3679;-661;-523;-252;537
489757;2;18;2;966;1693;3675;-643;-685;393;301
489767;2;18;2;966;1662;3645;-567;-1040;823;95
489777;2;18;2;966;1577;3665;-459;-1412;1078;-33
489787;2;18;2;966;1538;3677;-475;-1677;1296;-155
489797;2;18;2;966;1525;3574;-620;-1825;1867;-356
489807;2;18;2;966;1562;3565;-609;-2098;2570;-611
489817;2;18;2;966;1639;3628;-318;-2426;3124;-871
489827;2;18;2;966;1735;3726;67;-2537;3282;-1067
489837;2;18;2;966;1835;3832;606;-2150;2884;-1158
489847;2;18;2;966;1856;3938;815;-1320;2022;-1192
489857;2;18;2;966;1777;3959;659;-425;1111;-1133
489867;2;18;2;966;1660;3926;286;147;363;-1027
489877;2;18;2;966;1577;3936;45;231;-47;-941
489887;2;18;2;966;1499;3943;-177;106;-346;-837
489897;2;18;2;966;1462;3997;-435;-189;-442;-720
489907;2;18;2;966;1520;3989;-759;-467;-101;-688
489917;2;18;2;966;1552;4004;-723;-788;395;-705
489927;2;18;2;967;1724;4071;-489;-1244;626;-622
489937;2;18;2;967;1806;4070;-182;-1496;681;-607
489947;2;18;2;967;1767;3984;66;-1338;652;-629
489957;2;18;2;967;1692;3925;261;-594;556;-738
489967;2;18;2;967;1467;3948;169;291;232;-750
489977;2;18;2;967;1139;3934;-95;1094;-15;-715
489987;2;18;2;967;948;3872;-553;1713;32;-858
489997;2;18;2;967;727;3954;-915;2137;429;-1029
490007;2;18;2;967;411;4161;-980;2474;729;-962
490017;2;18;2;967;342;4105;-1015;2437;569;-628
490027;2;18;2;967;227;4229;-943;1866;60;-439
490037;2;18;2;967;-64;4244;-1011;1257;-217;-463
490047;2;18;2;967;-45;4029;-693;1345;-41;-583
490057;2;18;2;967;-190;3909;-267;1900;581;-933
490067;2;18;2;967;-69;3748;4;2635;1227;-1311
490077;2;18;2;967;305;3828;164;3014;1641;-1969
490087;2;18;2;967;782;4047;324;2933;1332;-2223
490097;2;18;2;967;947;4122;393;2476;541;-2403
490107;2;18;2;967;990;4140;412;2210;-502;-2543
490117;2;18;2;967;933;4157;130;1964;-1360;-2866
490127;2;18;2;967;593;4380;3;1867;-1806;-3088
490137;2;18;2;967;202;4616;-174;2107;-1979;-2939
490147;2;18;2;967;-153;4778;-748;1868;-2057;-2540
490157;2;18;2;967;-276;5013;-1052;852;-2143;-1766
490167;2;18;2;967;-180;4810;-1381;-467;-2167;-1039
490177;2;18;2;967;132;4558;-1627;-2366;-2018;-593
490187;2;18;2;967;408;4456;-1518;-4152;-1555;-626
490197;2;18;2;967;704;4304;-1035;-5185;-1022;-795
490207;2;18;2;967;918;4112;-85;-5366;-566;-1060
490217;2;18;2;967;831;4165;799;-3641;-389;-1368
490227;2;18;2;967;695;4044;716;-1825;-636;-1295
490237;2;18;2;967;651;3771;356;-1432;-904;-1161
490247;2;18;2;967;565;3532;85;-1554;-897;-1073
490257;2;18;2;967;400;3499;-103;-1521;-614;-1082
490267;2;18;2;967;250;3522;-300;-1243;-203;-1105
490277;2;18;2;967;220;3541;-411;-753;464;-1244
490287;2;18;2;967;190;3670;-430;-188;1147;-1446
490297;2;18;2;967;134;3794;-270;180;1610;-1622
490307;2;18;2;967;124;3929;-111;366;1711;-1764
490317;2;18;2;967;69;4106;-99;468;1572;-1806
490327;2;18;2;967;-3;4137;-131;575;1474;-1763
490337;2;18;2;967;-97;4210;-128;675;1343;-1702
490347;2;18;2;967;-146;4265;-154;630;1198;-1518
490357;2;18;2;967;-185;4273;-172;510;1032;-1256
490367;2;18;2;967;-232;4334;-359;308;897;-952
490377;2;18;2;967;-246;4283;-560;-1;1069;-650
490387;2;18;2;967;-221;4226;-565;-466;1309;-406
490397;2;18;2;967;-127;4111;-509;-1082;1406;-157
490407;2;18;2;967;-129;4081;-334;-1528;1266;48
490417;2;18;2;967;-99;4007;-243;-1610;975;247
490427;2;18;2;968;-188;3940;-220;-1450;791;373
490437;2;18;2;968;-233;3854;-191;-1067;796;422
490447;2;18;2;968;-315;3823;-215;-433;1115;314
490457;2;18;2;968;-289;3793;-164;198;1450;258
490467;2;18;2;968;-264;3844;-195;522;1714;241
490477;2;18;2;968;-263;3892;-221;604;1951;298
490487;2;18;2;968;-207;3970;-275;573;2140;347
490497;2;18;2;968;-108;3972;-215;542;2332;385
490507;2;18;2;968;-86;4008;-232;631;2366;476
490517;2;18;2;968;-121;3904;-390;772;2489;484
490527;2;18;2;968;-117;3801;-457;993;2725;494
490537;2;18;2;968;-119;3727;-416;1691;3015;471
490547;2;18;2;968;-124;3635;-459;2363;3320;643
490557;2;18;2;968;-26;3561;-513;2897;3540;827
490567;2;18;2;968;77;3615;-718;3417;3967;852
490577;2;18;2;968;183;3823;-911;3796;4474;747
490587;2;18;2;968;393;3965;-992;4006;4754;760
490597;2;18;2;968;642;4071;-1146;3955;4763;715
490607;2;18;2;968;730;4320;-1320;3733;4941;505
490617;2;18;2;968;757;4444;-1388;3843;5302;286
490627;2;18;2;968;696;4583;-1331;4262;5399;196
490637;2;18;2;968;639;4584;-1287;4581;5020;422
490647;2;18;2;968;697;4481;-1032;4356;4433;676
490657;2;18;2;968;1071;4536;-613;3854;3834;860
490667;2;18;2;968;1537;4811;-335;3982;3893;629
490677;2;18;2;968;1947;4769;-174;4560;4662;95
490687;2;18;2;968;2065;4761;-48;4762;5571;-595
490697;2;18;2;968;1923;4765;150;4210;6004;-1091
490707;2;18;2;968;1712;4701;321;3368;5821;-1167
490717;2;18;2;968;1545;4486;122;3297;5349;-908
490727;2;18;2;968;1389;4172;-482;4298;5159;-648
490737;2;18;2;968;1333;3882;-1199;5466;5322;-597
490747;2;18;2;968;1185;3716;-1462;5772;5510;-526
490757;2;18;2;968;945;4006;-1345;5099;5421;-178
490767;2;18;2;968;700;4420;-735;3796;5091;451
490777;2;18;2;968;822;4755;119;3036;4933;921
490787;2;18;2;968;1040;5049;785;3610;4908;1248
490797;2;18;2;968;1315;4998;726;4760;4989;1281
490807;2;18;2;968;1450;4650;175;5261;4933;1213
490817;2;18;2;968;1399;4263;-557;4710;4579;1225
490827;2;18;2;968;1182;3891;-1063;3332;4144;1217
490837;2;18;2;968;946;3649;-1262;1974;3627;1160
490847;2;18;2;968;775;3326;-1283;1259;3161;1123
490857;2;18;2;968;495;3133;-1203;836;2763;1055
490867;2;18;2;968;269;2987;-946;274;2114;1218
490877;2;18;2;968;285;2749;-619;36;1352;1500
490887;2;18;2;968;508;2552;-331;371;715;1680
490897;2;18;2;968;692;2356;-75;1238;438;1628
490907;2;18;2;968;848;2150;-118;2439;385;1416
490917;2;18;2;968;1002;1969;-415;3454;459;1100
490927;2;18;2;969;1047;1858;-751;4094;575;748
490937;2;18;2;969;966;1771;-867;4466;488;484
490947;2;18;2;969;726;1630;-802;4530;104;431
490957;2;18;2;969;527;1595;-616;4575;-577;396
490967;2;18;2;969;464;1684;-570;4943;-1328;353
490977;2;18;2;969;475;1905;-709;5478;-1877;402
490987;2;18;2;969;572;2098;-957;5792;-2320;476
490997;2;18;2;969;359;2416;-1314;5846;-2217;726
491007;2;18;2;969;-215;3002;-1409;5630;-2577;2037
491017;2;18;2;969;928;2830;-1913;4108;-3181;3621
491027;2;18;2;969;2289;2728;-1927;1834;-1716;2692
491037;2;18;2;969;2138;3207;-1277;744;-565;828
491047;2;18;2;969;1871;3021;-983;419;-1098;83
491057;2;18;2;969;1392;2675;-1187;37;-1920;-143
491067;2;18;2;969;981;2377;-1420;-264;-2102;134
491077;2;18;2;969;863;2279;-1485;-489;-1588;442
491087;2;18;2;969;923;1972;-1528;-303;-772;656
491097;2;18;2;969;1038;1732;-1707;256;227;492
491107;2;18;2;969;961;1733;-1838;702;1042;371
491117;2;18;2;969;952;1888;-1873;469;1356;564
491127;2;18;2;969;996;2251;-1625;-520;1714;554
491137;2;18;2;969;1077;2790;-991;-1458;2199;562
491147;2;18;2;969;1100;3248;-572;-1625;2720;624
491157;2;18;2;969;993;3530;-776;-1606;3097;861
491167;2;18;2;969;880;3674;-1362;-1838;3440;1272
491177;2;18;2;969;850;3834;-2039;-2615;3859;1502
491187;2;18;2;969;871;4173;-2479;-3825;4493;1363
491197;2;18;2;969;843;4524;-2361;-4788;4858;920
491207;2;18;2;969;925;4539;-1988;-5052;4547;573
491217;2;18;2;969;1040;4185;-1505;-4851;3383;411
491227;2;18;2;969;1199;3799;-1176;-5096;1955;598
491237;2;18;2;969;1308;3435;-965;-5456;1064;747
491247;2;18;2;969;1262;3088;-1102;-4994;1147;630
491257;2;18;2;969;1155;2735;-1197;-3827;1536;625
491267;2;18;2;969;1116;2466;-1355;-2579;1377;1083
491277;2;18;2;969;1140;2252;-1536;-2013;1155;1654
491287;2;18;2;969;1108;2251;-1038;-2217;1065;1894
491297;2;18;2;969;991;2618;-359;-1923;467;2096
491307;2;18;2;969;997;2602;-503;-1051;-152;2514
491317;2;18;2;969;1136;2212;-1455;-575;-165;2425
491327;2;18;2;969;1307;2030;-2674;-843;-43;2241
491337;2;18;2;969;1584;2051;-3478;-1545;167;2000
491347;2;18;2;969;1648;2646;-3427;-2484;170;1892
491357;2;18;2;969;1707;3134;-2938;-3516;-461;2092
491367;2;18;2;969;1607;3674;-2435;-4176;-997;2195
491377;2;18;2;969;1534;4249;-1673;-3564;-1187;2241
491387;2;18;2;969;1590;4426;-1268;-2456;-989;2281
491397;2;18;2;969;1222;4390;-1325;-2196;-793;2466
491407;2;18;2;969;1167;3976;-1702;-2412;-845;3019
491417;2;18;2;969;1540;3778;-2338;-2268;-270;2854
491427;2;18;2;970;1408;3895;-2655;-2588;632;2195
491437;2;18;2;970;1236;4138;-2995;-3205;1137;1603
491447;2;18;2;970;1132;4854;-3207;-3397;1912;1282
491457;2;18;2;970;1425;5123;-2695;-2944;2938;1222
491467;2;18;2;970;1704;5462;-2280;-2962;3482;908
491477;2;18;2;970;2056;5716;-1876;-3633;3173;795
491487;2;18;2;970;1458;6096;-1468;-4013;2304;1215
491497;2;18;2;970;610;5573;-1905;-3566;1264;2230
491507;2;18;2;970;322;5026;-2528;-3186;1082;3066
491517;2;18;2;970;140;5104;-3259;-2866;1486;3773
491527;2;18;2;970;380;5153;-3933;-3418;2697;4122
491537;2;18;2;970;1602;5098;-3722;-4865;4384;3542
491547;2;18;2;970;2446;5801;-2932;-6680;5122;2886
491557;2;18;2;970;3037;5777;-2199;-7720;4879;2007
491567;2;18;2;970;3683;5667;-1564;-7985;5691;-131
491577;2;18;2;970;3590;6061;54;-7025;6848;-2421
491587;2;18;2;970;3362;6450;1374;-5223;6998;-3865
491597;2;18;2;970;2635;6626;1582;-3644;5773;-4380
491607;2;18;2;970;2435;5893;-577;-2259;3434;-2898
491617;2;18;2;970;2182;4711;-2962;-2561;1007;-633
491627;2;18;2;970;1916;3653;-4557;-3386;-909;1699
491637;2;18;2;970;2282;3189;-5189;-3436;-1322;3006
491647;2;18;2;970;3778;3155;-3999;-4957;-164;3381
491657;2;18;2;970;4346;4486;1957;-5962;1203;2308
491667;2;18;2;970;3781;4620;1957;-4096;2559;1404
491677;2;18;2;970;4083;2135;-1228;-7572;4237;773
491687;2;18;2;970;3829;1103;-1694;-9682;4706;-478
491697;2;18;2;970;2153;1437;-1639;-8953;3263;-952
491707;2;18;2;970;481;1250;-1587;-7369;340;600
491717;2;18;2;970;-1598;1107;-1408;-6352;-1491;3186
491727;2;18;2;970;-2089;946;-708;-6785;-1052;4496
491737;2;18;2;970;-765;125;-669;-7618;602;4823
491747;2;18;2;970;1060;-350;-186;-7890;1235;3956
491757;2;18;2;970;2993;-796;506;-6609;989;1727
491767;2;18;2;970;3153;-890;701;-5476;1292;-1897
491777;2;18;2;970;1728;-1011;843;-4963;1743;-4242
491787;2;18;2;970;633;218;741;-6056;2586;-3834
491797;2;18;2;970;1421;4242;2314;-9517;5866;31
491807;2;18;2;970;7593;8158;7158;-17018;11898;4343
491817;2;18;2;970;13920;11712;15366;-22066;14821;4455
491827;2;18;2;970;11244;10489;14157;-19619;11915;5580
491837;2;18;2;970;6483;5321;10450;-14312;10343;6176
491847;2;18;2;970;1973;2035;6239;-12870;11893;4513
491857;2;18;2;970;-852;-989;4887;-12249;13997;3112
491867;2;18;2;970;-1753;-3164;2027;-13463;15670;409
491877;2;18;2;970;-1655;-4662;-758;-15412;15736;-1862
491887;2;18;2;970;-781;-4796;551;-16593;13604;-3067
491897;2;18;2;970;-1086;-4664;4274;-13442;7923;-3433
491907;2;18;2;970;-2026;-2552;6040;-9654;3056;-3762
491917;2;18;2;970;-2028;416;5648;-11518;-726;-2079
491927;2;18;2;971;-1685;2625;4172;-17489;-3894;1150
491937;2;18;2;971;-509;2781;3305;-21242;-4786;3647
491947;2;18;2;971;960;2387;4520;-21131;-2464;4056
491957;2;18;2;971;2835;1922;7456;-19022;946;3308
491967;2;18;2;971;5537;1513;10673;-16531;3317;1451
491977;2;18;2;971;6688;1231;11508;-15535;2083;578
491987;2;18;2;971;7444;64;10598;-14783;-1197;1674
491997;2;18;2;971;5606;-535;5466;-15012;-3090;3895
492007;2;18;2;971;5109;-3989;1803;-16317;-772;4688
492017;2;18;2;971;4934;-6862;4397;-12582;3574;4000
492027;2;18;2;971;2548;-5575;6432;-3062;8386;1951
492037;2;18;2;971;1788;-4528;4587;3025;13167;-592
492047;2;18;2;971;1452;-3596;3459;3723;16993;-3716
492057;2;18;2;971;-204;-1727;3826;2114;16414;-6701
492067;2;18;2;971;-6474;4664;3673;1216;9683;-4265
492077;2;18;2;971;-4033;4215;2114;-807;-265;4811
492087;2;18;2;971;37;2312;2057;-8210;-1911;4325
492097;2;18;2;971;-1997;2490;3116;-10376;-930;1795
492107;2;18;2;971;-1136;962;1404;-10149;-3043;1973
492117;2;18;2;971;512;-671;1237;-9872;-4188;1695
492127;2;18;2;971;1965;-1671;3791;-7998;-3637;-146
492137;2;18;2;971;2175;-1194;5662;-1816;-2062;-2772
492147;2;18;2;971;1494;-1023;5324;164;190;-3725
492157;2;18;2;971;1266;-1539;6186;-1268;1412;-3526
492167;2;18;2;971;1214;-1239;5816;-2407;2025;-2502
492177;2;18;2;971;1049;-901;5102;-3434;2360;-875
492187;2;18;2;971;931;-937;4000;-3451;2234;90
492197;2;18;2;971;803;-647;2681;-2631;2214;729
492207;2;18;2;971;690;-416;2150;-770;2972;1326
492217;2;18;2;971;1394;-566;1918;1304;4631;704
492227;2;18;2;971;1926;-495;3111;2620;6108;-505
492237;2;18;2;971;1914;-104;4626;2998;5844;-1025
492247;2;18;2;971;1678;-253;5358;2228;4497;-1196
492257;2;18;2;971;1438;-554;5306;1241;3282;-1427
492267;2;18;2;971;1395;-710;5025;527;3181;-1661
492277;2;18;2;971;1241;-576;4679;-72;3889;-2095
492287;2;18;2;971;1203;-406;4684;-1040;4330;-1997
492297;2;18;2;971;691;-28;4555;-1768;4052;-1687
492307;2;18;2;971;319;113;4297;-2868;3236;-1314
492317;2;18;2;971;113;34;4107;-3705;2550;-1183
492327;2;18;2;971;-124;-195;3763;-3408;2314;-1326
492337;2;18;2;971;-94;-398;3572;-2337;2283;-1711
492347;2;18;2;971;9;-539;3685;-970;2069;-1759
492357;2;18;2;971;78;-642;3951;104;1203;-1554
492367;2;18;2;971;398;-861;3825;663;359;-1407
492377;2;18;2;971;742;-784;3881;816;52;-1224
492387;2;18;2;971;919;-593;4101;690;61;-725
492397;2;18;2;971;866;-619;3972;758;4;-399
492407;2;18;2;971;576;-686;3920;1115;-143;-451
492417;2;18;2;971;274;-697;4078;1688;-422;-462
492427;2;18;2;972;-93;-643;4135;2113;-571;-265
492437;2;18;2;972;-308;-828;4001;1973;-649;-275
492447;2;18;2;972;-494;-986;3716;1756;-586;-495
492457;2;18;2;972;-485;-1011;3602;2359;-443;-670
492467;2;18;2;972;-221;-794;3908;3814;-324;-643
492477;2;18;2;972;183;-312;4323;5270;-551;-238
492487;2;18;2;972;773;203;4515;5479;-679;16
492497;2;18;2;972;996;458;4313;4361;-632;-230
492507;2;18;2;972;982;317;4002;3220;-483;-670
492517;2;18;2;972;935;-62;3671;2831;-322;-1030
492527;2;18;2;972;711;-343;3613;2854;-489;-1202
492537;2;18;2;972;-41;-200;4074;2805;-1012;-806
492547;2;18;2;972;-356;-51;4841;3001;-1185;-13
492557;2;18;2;972;-293;-104;5113;3012;-688;-35
492567;2;18;2;972;-191;-216;4779;2976;101;-461
492577;2;18;2;972;188;-473;4193;3629;574;-665
492587;2;18;2;972;592;-648;3647;4451;471;-787
492597;2;18;2;972;678;-623;3284;4345;-114;-947
492607;2;18;2;972;460;-71;3559;3512;-738;-551
492617;2;18;2;972;276;106;4101;2704;-1423;-104
492627;2;18;2;972;183;359;4695;2833;-1650;277
492637;2;18;2;972;283;659;5099;3691;-1390;407
492647;2;18;2;972;336;674;4938;4340;-1143;319
492657;2;18;2;972;531;519;4513;4564;-1219;176
492667;2;18;2;972;573;648;4405;4493;-939;-93
492677;2;18;2;972;359;893;4664;4575;-615;-396
492687;2;18;2;972;275;779;4227;4722;-930;-91
492697;2;18;2;972;426;441;3570;4566;-1423;371
492707;2;18;2;972;345;495;3459;4294;-2110;747
492717;2;18;2;972;349;717;4242;4325;-2999;1268
492727;2;18;2;972;354;1052;5867;4203;-3932;1751
492737;2;18;2;972;350;1033;5816;4033;-4433;1739
492747;2;18;2;972;131;770;4825;4217;-4161;1472
492757;2;18;2;972;333;378;4596;4756;-4326;1478
492767;2;18;2;972;622;171;4315;4984;-5282;1539
492777;2;18;2;972;676;85;3895;4614;-6150;1837
492787;2;18;2;972;800;113;4353;4220;-6492;1987
492797;2;18;2;972;1186;197;4923;4584;-6422;1778
492807;2;18;2;972;1622;403;5033;5918;-5556;1212
492817;2;18;2;972;2055;599;5241;7172;-4034;661
492827;2;18;2;972;2449;803;5322;8201;-2521;-171
492837;2;18;2;972;2368;1185;5068;9283;-1245;-1170
492847;2;18;2;972;1868;1545;5017;10247;-438;-1624
492857;2;18;2;972;1304;1784;4888;10662;-836;-1467
492867;2;18;2;972;916;1935;4284;10681;-1830;-868
492877;2;18;2;972;715;2019;3849;10668;-2803;-74
492887;2;18;2;972;859;2135;3637;10616;-3839;641
492897;2;18;2;972;1204;2250;3368;10223;-4627;810
492907;2;18;2;972;1476;2562;3664;9523;-5153;759
492917;2;18;2;972;1905;2770;4105;8837;-5464;556
492927;2;18;2;973;2287;2583;3732;8662;-5278;59
492937;2;18;2;973;2411;2270;3029;8784;-4536;-765
492947;2;18;2;973;2389;1990;2438;8659;-4005;-1400
492957;2;18;2;973;2179;1981;2228;7802;-4209;-1561
492967;2;18;2;973;1863;1985;2076;6225;-5126;-1278
492977;2;18;2;973;1122;2362;2303;4471;-6443;-532
492987;2;18;2;973;671;2524;2552;4124;-7406;361
492997;2;18;2;973;668;2386;2548;5010;-7417;687
493007;2;18;2;973;752;2635;2738;7194;-6175;196
493017;2;18;2;973;1327;2803;3032;10051;-4706;-504
493027;2;18;2;973;1737;2959;2782;11366;-4037;-979
493037;2;18;2;973;2079;2837;2116;10500;-4318;-947
493047;2;18;2;973;2276;2589;1558;7775;-5210;-975
493057;2;18;2;973;2207;2758;1432;5135;-6510;-907
493067;2;18;2;973;2020;2907;1629;4361;-7494;-1041
493077;2;18;2;973;1724;3005;1689;5368;-7716;-1384
493087;2;18;2;973;1431;2976;1746;7695;-7629;-1953
493097;2;18;2;973;1114;2868;1448;10738;-7338;-2267
493107;2;18;2;973;1018;2586;938;13649;-6495;-2285
493117;2;18;2;973;1063;2359;533;15008;-5652;-2278
493127;2;18;2;973;1063;2473;-9;14611;-4823;-2025
493137;2;18;2;973;1307;2430;-260;13135;-4177;-1419
493147;2;18;2;973;1931;2398;-334;11192;-3594;-1026
493157;2;18;2;973;2484;2832;-282;9100;-3074;-1148
493167;2;18;2;973;2788;3297;32;7479;-2517;-1324
493177;2;18;2;973;3000;3425;421;6811;-2214;-1548
493187;2;18;2;973;3003;3527;770;6754;-2050;-2121
493197;2;18;2;973;2865;3714;1091;7013;-2136;-2637
493207;2;18;2;973;2597;3837;1342;7684;-2597;-3091
493217;2;18;2;973;1783;4178;1471;8798;-3301;-3331
493227;2;18;2;973;659;4677;1510;10518;-4290;-2596
493237;2;18;2;973;-119;4696;1304;12590;-5536;-1102
493247;2;18;2;973;-650;4522;781;13960;-6695;209
493257;2;18;2;973;-795;4358;-142;13993;-7356;1354
493267;2;18;2;973;-464;3993;-1076;12638;-6961;2039
493277;2;18;2;973;181;3377;-1629;10804;-5222;2135
493287;2;18;2;973;718;2967;-1757;9164;-2629;1712
493297;2;18;2;973;1255;2855;-1211;7565;-462;1127
493307;2;18;2;973;1616;3267;-487;6255;365;745
493317;2;18;2;973;1817;3878;65;5525;134;775
493327;2;18;2;973;1908;3905;694;5883;-571;855
493337;2;18;2;973;2200;4080;931;7666;-1869;633
493347;2;18;2;973;2382;4215;695;10052;-3956;645
493357;2;18;2;973;2420;4037;14;12288;-6768;781
493367;2;18;2;973;2323;3462;-885;14129;-8798;887
493377;2;18;2;973;2034;2989;-1946;15548;-9699;594
493387;2;18;2;973;1771;2604;-2719;16372;-9386;257
493397;2;18;2;973;1664;1877;-3336;16359;-7905;-367
493407;2;18;2;973;1502;1724;-3786;14952;-6290;-1376
493417;2;18;2;973;1210;2384;-4014;12586;-4796;-1888
493427;2;18;2;974;1099;2983;-3901;9113;-3397;-1581
493437;2;18;2;974;1241;3250;-3427;6708;-2797;-1310
493447;2;18;2;974;1211;3664;-2804;5598;-3171;-998
493457;2;18;2;974;1360;3663;-2456;6086;-4371;-592
493467;2;18;2;974;1357;3422;-2416;7338;-5574;-235
493477;2;18;2;974;1262;3102;-2584;8230;-6596;292
493487;2;18;2;974;1344;2858;-2653;7755;-7054;728
493497;2;18;2;974;1531;2527;-2779;6459;-7257;930
493507;2;18;2;974;1813;2326;-3254;5291;-6443;292
493517;2;18;2;974;1910;2359;-3662;4683;-4454;-794
493527;2;18;2;974;1909;2587;-3640;4265;-1870;-1826
493537;2;18;2;974;1810;2769;-3073;3448;-460;-2125
493547;2;18;2;974;1640;3059;-2710;2091;-422;-1944
493557;2;18;2;974;1528;3308;-2347;618;-1181;-1214
493567;2;18;2;974;1614;3131;-2082;-237;-2130;-534
493577;2;18;2;974;1523;2986;-1865;-96;-2667;-222
493587;2;18;2;974;1484;2592;-1865;912;-2741;-153
493597;2;18;2;974;1584;2067;-2107;2371;-2399;-422
493607;2;18;2;974;1695;1845;-2882;3679;-1951;-1036
493617;2;18;2;974;1621;1918;-3534;4326;-1490;-1242
493627;2;18;2;974;1586;1569;-4005;4217;-1552;-987
493637;2;18;2;974;1566;1363;-4611;3583;-1819;-603
493647;2;18;2;974;1357;1429;-5076;2289;-1835;68
493657;2;18;2;974;1063;1611;-5263;141;-1514;1021
493667;2;18;2;974;953;1779;-5181;-2592;-878;1875
493677;2;18;2;974;1092;2122;-4824;-4934;250;2363
493687;2;18;2;974;1292;2560;-4093;-6341;1220;2643
493697;2;18;2;974;1635;2824;-3338;-6713;1540;2767
493707;2;18;2;974;1996;2873;-2963;-6296;1373;2611
493717;2;18;2;974;2390;2677;-2970;-5393;1166;2041
493727;2;18;2;974;2555;2743;-3198;-4652;1178;1209
493737;2;18;2;974;2509;2954;-3059;-4560;1032;669
493747;2;18;2;974;2336;2935;-2755;-4786;407;440
493757;2;18;2;974;2069;2795;-2483;-4588;-437;383
493767;2;18;2;974;1812;2721;-2484;-3934;-1004;503
493777;2;18;2;974;1614;2634;-2674;-3388;-835;491
493787;2;18;2;974;1525;2545;-2592;-3243;-66;470
493797;2;18;2;974;1482;2574;-2266;-3547;658;554
493807;2;18;2;974;1456;2622;-1949;-3986;1035;942
493817;2;18;2;974;1678;2534;-1790;-4130;1207;1104
493827;2;18;2;974;1701;2559;-1908;-3596;1436;1035
493837;2;18;2;974;1797;2817;-2087;-2866;1599;762
493847;2;18;2;974;1917;2854;-2087;-2174;1497;704
493857;2;18;2;974;1884;2804;-2166;-1585;1098;685
493867;2;18;2;974;1807;2674;-2521;-1128;934;633
493877;2;18;2;974;1639;2559;-2709;-778;1348;515
493887;2;18;2;974;1593;2214;-2796;-618;1932;304
493897;2;18;2;974;1568;2039;-2750;-664;2556;-68
493907;2;18;2;974;1422;1885;-2566;-869;2897;-295
493917;2;18;2;974;1458;1814;-2593;-1007;2914;-611
493927;2;18;2;975;1480;1839;-2714;-905;2828;-796
493937;2;18;2;975;1502;1662;-2790;-563;2579;-643
493947;2;18;2;975;1491;1435;-2915;-367;2475;-561
493957;2;18;2;975;1401;1313;-2860;-300;2383;-429
493967;2;18;2;975;1296;1513;-2875;-420;2062;-108
493977;2;18;2;975;1154;1945;-2934;-970;1503;291
493987;2;18;2;975;1084;2407;-2943;-1646;910;616
493997;2;18;2;975;1195;2695;-2986;-1842;496;803
494007;2;18;2;975;1413;3019;-3116;-1574;424;572
494017;2;18;2;975;1492;3295;-3135;-1433;455;291
494027;2;18;2;975;1693;3542;-3141;-1457;216;-110
494037;2;18;2;975;1836;3708;-3103;-1594;-9;-746
494047;2;18;2;975;1828;3780;-2891;-1300;-115;-1506
494057;2;18;2;975;1681;3632;-2664;-515;-192;-2464
494067;2;18;2;975;1318;3627;-2525;582;-202;-3531
494077;2;18;2;975;813;3894;-2391;2213;-699;-4046
494087;2;18;2;975;372;4127;-2742;4178;-1779;-3859
494097;2;18;2;975;18;4174;-3583;5942;-2788;-3442
494107;2;18;2;975;-118;4173;-4440;7488;-3340;-3139
494117;2;18;2;975;-64;4012;-5528;8407;-3435;-2858
494127;2;18;2;975;157;3787;-6500;8509;-3284;-2772
494137;2;18;2;975;774;3276;-7633;8096;-2731;-2729
494147;2;18;2;975;1477;2969;-8300;6814;-2027;-2873
494157;2;18;2;975;2036;3062;-8334;4245;-1812;-2768
494167;2;18;2;975;2161;3267;-7461;721;-2245;-2146
494177;2;18;2;975;2019;3405;-6468;-2401;-3286;-1342
494187;2;18;2;975;1715;3593;-5674;-4069;-3745;-1095
494197;2;18;2;975;1308;3902;-4933;-3995;-3171;-1306
494207;2;18;2;975;967;4340;-4083;-2427;-2298;-1825
494217;2;18;2;975;878;4609;-3760;-485;-1895;-2223
494227;2;18;2;975;954;4666;-3840;691;-1887;-2289
494237;2;18;2;975;1118;4558;-4102;976;-1929;-2399
494247;2;18;2;975;1317;4279;-4323;889;-1870;-2625
494257;2;18;2;975;1525;4039;-4706;755;-1302;-3242
494267;2;18;2;975;1695;3967;-4807;373;-68;-4262
494277;2;18;2;975;1751;3967;-4425;68;1032;-5200
494287;2;18;2;975;1713;4017;-3456;372;1522;-5809
494297;2;18;2;975;1458;4077;-2673;2441;1543;-6235
494307;2;18;2;975;1151;3845;-2690;3132;1004;-5961
494317;2;18;2;975;802;3462;-2568;2065;205;-5546
494327;2;18;2;975;422;3319;-2503;1485;-218;-5351
494337;2;18;2;975;186;3124;-2706;1868;-244;-5201
494347;2;18;2;975;197;2833;-3096;2959;450;-5425
494357;2;18;2;975;214;2735;-3490;3583;1463;-5873
494367;2;18;2;975;239;2794;-3581;3426;2306;-6043
494377;2;18;2;975;415;2726;-3527;2823;2608;-6004
494387;2;18;2;975;507;2721;-3511;2079;2597;-5847
494397;2;18;2;975;517;2603;-3516;1355;2557;-5565
494407;2;18;2;975;454;2407;-3504;559;2708;-5327
494417;2;18;2;975;419;2136;-3371;-295;2984;-5239
494427;2;18;2;976;276;2153;-3266;-1193;3448;-5372
494437;2;18;2;976;126;2282;-3036;-2230;3943;-5231
494447;2;18;2;976;80;2341;-2571;-3268;4187;-4935
494457;2;18;2;976;246;2520;-2354;-4025;4298;-4634
494467;2;18;2;976;301;2953;-2056;-4293;4227;-4678
494477;2;18;2;976;153;2989;-2214;-3662;3832;-4335
494487;2;18;2;976;0;2988;-2523;-2959;3743;-4124
494497;2;18;2;976;15;2914;-2842;-2581;3939;-3820
494507;2;18;2;976;64;2725;-3027;-2899;4416;-3759
494517;2;18;2;976;156;2585;-2974;-3741;4922;-3758
494527;2;18;2;976;304;2598;-2656;-4782;5340;-3711
494537;2;18;2;976;545;2550;-2370;-5770;5838;-3840
494547;2;18;2;976;604;2527;-1775;-6334;6407;-4046
494557;2;18;2;976;498;2520;-1159;-5953;6537;-4149
494567;2;18;2;976;455;2421;-903;-5309;6314;-3983
494577;2;18;2;976;247;2426;-766;-4698;6073;-3852
494587;2;18;2;976;-81;2570;-766;-4321;5690;-3604
494597;2;18;2;976;-340;2671;-1015;-4041;5371;-3208
494607;2;18;2;976;-509;2725;-1381;-3747;5330;-2712
494617;2;18;2;976;-571;2685;-1540;-3240;5417;-2190
494627;2;18;2;976;-453;2535;-1723;-2641;5473;-1619
494637;2;18;2;976;-238;2277;-1912;-2372;5545;-1473
494647;2;18;2;976;118;2160;-2260;-2605;5722;-1549
494657;2;18;2;976;354;2051;-2323;-3183;6094;-1650
494667;2;18;2;976;542;2033;-2150;-3959;6466;-1875
494677;2;18;2;976;633;2033;-1948;-4528;6555;-2164
494687;2;18;2;976;531;2222;-1492;-4702;6572;-2133
494697;2;18;2;976;463;2300;-1292;-4441;6465;-1813
494707;2;18;2;976;251;2413;-927;-4226;6433;-1531
494717;2;18;2;976;181;2497;-752;-4217;6278;-1403
494727;2;18;2;976;273;2627;-631;-4624;6012;-1564
494737;2;18;2;976;260;2903;-574;-4439;5785;-1671
494747;2;18;2;976;219;2875;-587;-3264;5413;-1536
494757;2;18;2;976;369;2702;-928;-1840;5035;-1290
494767;2;18;2;976;572;2533;-1353;-845;4919;-1370
494777;2;18;2;976;716;2456;-1615;-506;5060;-1611
494787;2;18;2;976;732;2463;-1507;-597;5230;-1847
494797;2;18;2;976;652;2632;-1152;-981;5103;-1839
494807;2;18;2;976;602;2632;-929;-1329;4759;-1714
494817;2;18;2;976;537;2619;-1163;-1646;4602;-1766
494827;2;18;2;976;457;2694;-1309;-1882;4726;-1989
494837;2;18;2;976;448;2954;-1299;-1456;4885;-2032
494847;2;18;2;976;289;3143;-1369;-1312;4735;-2046
494857;2;18;2;976;160;3396;-1304;-841;4362;-1704
494867;2;18;2;976;213;3394;-1328;-342;3996;-1387
494877;2;18;2;976;268;3308;-1520;343;4045;-1368
494887;2;18;2;976;247;3263;-1568;393;4388;-1406
494897;2;18;2;976;269;3279;-1299;-45;4609;-1314
494907;2;18;2;976;337;3324;-1162;-580;4678;-1079
494917;2;18;2;976;360;3396;-910;-1100;4716;-805
494927;2;18;2;977;471;3371;-618;-1293;4598;-457
494937;2;18;2;977;637;3353;-594;-1044;4539;-413
494947;2;18;2;977;632;3404;-634;-460;4597;-536
494957;2;18;2;977;618;3428;-741;448;4716;-838
494967;2;18;2;977;630;3446;-990;1610;4827;-1197
494977;2;18;2;977;543;3390;-1347;2902;4867;-1509
494987;2;18;2;977;445;3324;-1840;3992;4891;-1761
494997;2;18;2;977;442;3212;-2280;4577;4833;-1846
495007;2;18;2;977;597;3094;-2772;4608;4858;-1816
495017;2;18;2;977;804;3078;-3055;4035;4895;-1815
495027;2;18;2;977;1013;3216;-3154;3168;4661;-1871
495037;2;18;2;977;1172;3399;-3077;2533;4229;-1815
495047;2;18;2;977;1232;3664;-2914;2391;3611;-1751
495057;2;18;2;977;1193;3922;-2799;2805;2924;-1635
495067;2;18;2;977;1072;4058;-2773;3733;2275;-1315
495077;2;18;2;977;855;4142;-2913;4642;1556;-829
495087;2;18;2;977;744;4138;-3247;5118;932;-206
495097;2;18;2;977;785;4005;-3740;4915;752;557
495107;2;18;2;977;935;3680;-4144;4018;1171;1101
495117;2;18;2;977;1212;3455;-4155;2676;1965;1386
495127;2;18;2;977;1539;3236;-3728;1401;2441;1496
495137;2;18;2;977;1718;3189;-3219;730;2235;1501
495147;2;18;2;977;1714;3208;-2828;854;1618;1634
495157;2;18;2;977;1602;3037;-2518;1748;885;1930
495167;2;18;2;977;1581;2738;-2429;2993;196;2271
495177;2;18;2;977;1722;2490;-2757;3839;-229;2538
495187;2;18;2;977;1858;2308;-3176;3875;-32;2811
495197;2;18;2;977;2005;2112;-3267;3046;543;3090
495207;2;18;2;977;2282;2017;-3118;1550;1145;3275
495217;2;18;2;977;2632;2142;-2922;-183;1893;3213
495227;2;18;2;977;2929;2401;-2457;-1377;2938;2694
495237;2;18;2;977;3024;2682;-1879;-1552;3842;1998
495247;2;18;2;977;3056;2886;-1308;-875;4284;1394
495257;2;18;2;977;3093;3051;-947;179;4310;843
495267;2;18;2;977;3059;3188;-891;1458;4054;146
495277;2;18;2;977;2845;3224;-952;3056;3690;-430
495287;2;18;2;977;2624;3161;-1083;5034;3325;-913
495297;2;18;2;977;2515;3047;-1428;6870;2698;-1258
495307;2;18;2;977;2434;2864;-2058;7728;1905;-1601
495317;2;18;2;977;2224;2737;-2867;7601;1337;-1992
495327;2;18;2;977;1829;2666;-3342;6820;1292;-2141
495337;2;18;2;977;1482;2601;-3465;5499;1382;-1966
495347;2;18;2;977;1196;2458;-3294;3912;1318;-1541
495357;2;18;2;977;1059;2374;-3242;2389;1234;-1148
495367;2;18;2;977;963;2449;-3124;1290;1566;-924
495377;2;18;2;977;865;2543;-2795;861;1901;-635
495387;2;18;2;977;920;2602;-2438;922;1907;-198
495397;2;18;2;977;1122;2570;-2375;1213;1534;267
495407;2;18;2;977;1421;2495;-2656;1416;1334;392
495417;2;18;2;977;1620;2465;-2747;1379;1404;273
