timestamp;subject_id;activity;label;seq;ax;ay;az;gx;gy;gz
564927;2;18;2;1117;1457;3916;28;-570;-305;-325
564937;2;18;2;1117;1443;3917;133;-698;-454;-289
564947;2;18;2;1117;1432;3952;46;-648;-512;-280
564957;2;18;2;1117;1422;3947;21;-531;-423;-296
564967;2;18;2;1117;1422;3926;45;-457;-398;-306
564977;2;18;2;1117;1411;3940;62;-529;-506;-291
564987;2;18;2;1117;1397;3935;91;-643;-621;-294
564997;2;18;2;1117;1396;3966;45;-674;-680;-313
565007;2;18;2;1117;1387;3970;20;-598;-590;-357
565017;2;18;2;1117;1425;3959;-8;-486;-480;-389
565027;2;18;2;1117;1460;3923;-63;-404;-334;-422
565037;2;18;2;1117;1489;3923;-85;-470;-177;-457
565047;2;18;2;1117;1471;3902;-44;-552;-121;-459
565057;2;18;2;1117;1454;3890;-34;-608;-154;-424
565067;2;18;2;1117;1409;3899;-81;-649;-86;-383
565077;2;18;2;1117;1435;3898;56;-707;82;-430
565087;2;18;2;1117;1430;3977;112;-847;-22;-358
565097;2;18;2;1117;1471;3962;228;-911;-114;-330
565107;2;18;2;1117;1461;3976;248;-826;-244;-315
565117;2;18;2;1117;1447;3972;215;-647;-295;-311
565127;2;18;2;1117;1467;3939;189;-464;-322;-328
565137;2;18;2;1117;1433;3933;161;-336;-402;-356
565147;2;18;2;1117;1429;3923;93;-238;-429;-411
565157;2;18;2;1117;1404;3910;-29;-141;-297;-417
565167;2;18;2;1117;1409;3902;-99;-123;-87;-439
565177;2;18;2;1117;1384;3905;-121;-190;214;-503
565187;2;18;2;1117;1410;3913;-82;-267;544;-540
565197;2;18;2;1117;1389;3912;-43;-346;676;-533
565207;2;18;2;1117;1405;3907;41;-407;809;-577
565217;2;18;2;1117;1376;3949;99;-362;930;-589
565227;2;18;2;1117;552;3577;-305;-1427;966;613
565237;2;18;2;1117;1127;2859;-629;-4453;822;868
565247;2;18;2;1117;1213;3896;102;-5716;1520;68
565257;2;18;2;1117;1594;4151;449;-4417;1836;421
565267;2;18;2;1117;1812;4094;838;-2610;1845;168
565277;2;18;2;1117;1937;4215;796;-1437;1606;-45
565287;2;18;2;1117;1935;4208;876;-1028;1332;-240
565297;2;18;2;1117;1805;4175;967;-718;998;-334
565307;2;18;2;1117;1596;4053;924;-479;576;-353
565317;2;18;2;1117;1418;3965;798;-430;220;-295
565327;2;18;2;1117;1271;3901;648;-398;69;-241
565337;2;18;2;1117;1210;3859;409;-241;233;-210
565347;2;18;2;1117;1204;3847;223;21;692;-244
565357;2;18;2;1117;1254;3883;162;120;1101;-242
565367;2;18;2;1117;1334;3916;231;-51;1308;-273
565377;2;18;2;1117;1353;3946;371;-344;1201;-216
565387;2;18;2;1117;1373;3990;424;-495;1046;-233
565397;2;18;2;1117;1391;3977;615;-546;855;-258
565407;2;18;2;1117;1389;4027;661;-479;546;-244
565417;2;18;2;1117;1353;3995;647;-320;233;-175
565427;2;18;2;1118;1285;3926;585;-191;42;-170
565437;2;18;2;1118;1246;3891;503;-97;81;-184
565447;2;18;2;1118;1258;3852;511;-44;186;-241
565457;2;18;2;1118;1290;3865;525;69;216;-333
565467;2;18;2;1118;1304;3905;404;240;295;-388
565477;2;18;2;1118;1272;3935;302;339;484;-491
565487;2;18;2;1118;1272;3937;261;308;705;-591
565497;2;18;2;1118;1265;3981;310;131;846;-620
565507;2;18;2;1118;1306;3981;376;-70;861;-618
565517;2;18;2;1118;1335;4013;509;-254;743;-593
565527;2;18;2;1118;1369;4029;589;-369;396;-559
565537;2;18;2;1118;1370;4038;540;-335;-15;-547
565547;2;18;2;1118;1302;4015;499;-288;-311;-565
565557;2;18;2;1118;1253;4026;485;-309;-459;-608
565567;2;18;2;1118;1192;4022;532;-326;-602;-597
565577;2;18;2;1118;1169;4028;466;-275;-720;-587
565587;2;18;2;1118;1220;3992;457;-100;-863;-565
565597;2;18;2;1118;1273;3924;202;119;-895;-608
565607;2;18;2;1118;1323;3897;80;275;-721;-675
565617;2;18;2;1118;1376;3869;25;215;-633;-670
565627;2;18;2;1118;1397;3828;40;-99;-593;-649
565637;2;18;2;1118;1429;3808;120;-551;-655;-662
565647;2;18;2;1118;1445;3794;188;-997;-715;-623
565657;2;18;2;1118;1439;3819;329;-1369;-692;-654
565667;2;18;2;1118;1422;3878;450;-1478;-661;-689
565677;2;18;2;1118;1411;3887;511;-1335;-682;-649
565687;2;18;2;1118;1380;3907;480;-1077;-736;-584
565697;2;18;2;1118;1330;3908;313;-730;-660;-532
565707;2;18;2;1118;1412;3815;147;-409;-261;-629
565717;2;18;2;1118;1253;3918;176;-350;58;-614
565727;2;18;2;1118;1345;3853;107;-602;280;-636
565737;2;18;2;1118;1314;3947;304;-1032;390;-682
565747;2;18;2;1118;1329;4031;550;-1312;224;-678
565757;2;18;2;1118;1332;4127;661;-1320;-26;-631
565767;2;18;2;1118;1319;4193;634;-918;-262;-515
565777;2;18;2;1118;1314;4214;477;-593;-330;-448
565787;2;18;2;1118;1313;4101;297;-543;-239;-452
565797;2;18;2;1118;1313;4058;210;-686;-19;-495
565807;2;18;2;1118;1303;4024;225;-1062;155;-501
565817;2;18;2;1118;1306;3959;222;-1789;340;-572
565827;2;18;2;1118;1247;3997;281;-2128;436;-570
565837;2;18;2;1118;1219;4000;506;-2420;603;-475
565847;2;18;2;1118;1278;4035;712;-2327;844;-537
565857;2;18;2;1118;1411;4057;1131;-1699;828;-476
565867;2;18;2;1118;1453;4071;1294;-905;604;-517
565877;2;18;2;1118;1509;3968;1247;-515;144;-529
565887;2;18;2;1118;1581;3869;1165;-606;-437;-584
565897;2;18;2;1118;1564;3925;1103;-805;-1056;-699
565907;2;18;2;1118;1546;3989;939;-766;-1429;-818
565917;2;18;2;1118;1523;3989;728;-698;-1453;-958
565927;2;18;2;1119;1477;4004;734;-734;-1355;-1151
565937;2;18;2;1119;1429;4050;817;-625;-1333;-1324
565947;2;18;2;1119;1340;4115;798;-405;-1372;-1300
565957;2;18;2;1119;1293;4030;706;-294;-1471;-1240
565967;2;18;2;1119;1358;3957;613;-282;-1493;-1274
565977;2;18;2;1119;1379;4003;698;-224;-1555;-1226
565987;2;18;2;1119;1452;3913;805;-215;-1661;-1102
565997;2;18;2;1119;1514;3891;850;-397;-1966;-1002
566007;2;18;2;1119;1554;3849;849;-567;-2411;-929
566017;2;18;2;1119;1501;3811;790;-670;-2816;-856
566027;2;18;2;1119;1457;3770;846;-775;-3169;-822
566037;2;18;2;1119;1384;3752;846;-788;-3445;-787
566047;2;18;2;1119;1329;3738;907;-756;-3715;-735
566057;2;18;2;1119;1305;3710;890;-773;-4049;-678
566067;2;18;2;1119;1304;3665;699;-726;-4270;-652
566077;2;18;2;1119;1313;3699;584;-454;-4214;-715
566087;2;18;2;1119;1292;3699;585;-106;-4177;-778
566097;2;18;2;1119;1277;3683;652;149;-4349;-811
566107;2;18;2;1119;1220;3704;681;185;-4618;-773
566117;2;18;2;1119;1202;3700;624;44;-4926;-694
566127;2;18;2;1119;1208;3663;488;-170;-5127;-645
566137;2;18;2;1119;1225;3691;427;-280;-5200;-753
566147;2;18;2;1119;1205;3690;434;-143;-5338;-807
566157;2;18;2;1119;1194;3699;361;120;-5585;-857
566167;2;18;2;1119;1135;3713;299;349;-5843;-815
566177;2;18;2;1119;1122;3697;204;518;-6149;-826
566187;2;18;2;1119;1092;3731;109;614;-6261;-887
566197;2;18;2;1119;1083;3788;118;800;-6513;-870
566207;2;18;2;1119;1116;3819;-31;1040;-6787;-880
566217;2;18;2;1119;1164;3786;-214;1214;-6968;-1057
566227;2;18;2;1119;1183;3769;-350;1205;-6977;-1252
566237;2;18;2;1119;1164;3800;-397;875;-7105;-1392
566247;2;18;2;1119;1151;3811;-356;326;-7464;-1400
566257;2;18;2;1119;1042;3825;-296;-12;-7924;-1335
566267;2;18;2;1119;977;3839;-317;-85;-8351;-1320
566277;2;18;2;1119;919;3897;-378;64;-8675;-1300
566287;2;18;2;1119;927;3959;-426;326;-8828;-1235
566297;2;18;2;1119;928;3986;-433;580;-8847;-1202
566307;2;18;2;1119;885;4030;-458;763;-8739;-1168
566317;2;18;2;1119;922;4024;-494;887;-8607;-1125
566327;2;18;2;1119;931;4050;-532;996;-8481;-1168
566337;2;18;2;1119;916;4070;-511;1243;-8435;-1133
566347;2;18;2;1119;846;4086;-412;1587;-8439;-997
566357;2;18;2;1119;816;4091;-320;1972;-8344;-914
566367;2;18;2;1119;832;4131;-72;2356;-8262;-807
566377;2;18;2;1119;1102;4202;72;2477;-8331;-854
566387;2;18;2;1119;1256;4411;331;2185;-8426;-942
566397;2;18;2;1119;1292;4495;461;1927;-8509;-1001
566407;2;18;2;1119;1192;4529;460;1729;-8402;-1107
566417;2;18;2;1119;947;4570;363;1369;-8064;-1224
566427;2;18;2;1120;550;4609;166;771;-7592;-1212
566437;2;18;2;1120;214;4717;92;414;-7131;-984
566447;2;18;2;1120;59;4793;20;864;-6564;-620
566457;2;18;2;1120;154;4759;-47;1550;-6004;-284
566467;2;18;2;1120;480;4659;47;1925;-5642;-2
566477;2;18;2;1120;704;4596;159;1830;-5637;118
566487;2;18;2;1120;740;4607;260;1368;-5892;120
566497;2;18;2;1120;630;4644;216;1006;-6236;167
566507;2;18;2;1120;446;4606;62;755;-6785;213
566517;2;18;2;1120;222;4674;-105;607;-7087;236
566527;2;18;2;1120;59;4772;-197;500;-7238;205
566537;2;18;2;1120;25;4861;-223;438;-7364;264
566547;2;18;2;1120;101;4850;-355;151;-7622;345
566557;2;18;2;1120;156;4698;-454;-354;-7882;336
566567;2;18;2;1120;289;4536;-421;-950;-8113;390
566577;2;18;2;1120;400;4348;-186;-1233;-8380;472
566587;2;18;2;1120;382;4221;29;-1138;-8791;622
566597;2;18;2;1120;445;3986;69;-1179;-9036;687
566607;2;18;2;1120;502;3811;172;-1283;-9243;696
566617;2;18;2;1120;566;3675;224;-1437;-9554;700
566627;2;18;2;1120;572;3722;124;-1519;-9624;715
566637;2;18;2;1120;590;3695;52;-1391;-9486;727
566647;2;18;2;1120;595;3692;-69;-1152;-9113;653
566657;2;18;2;1120;557;3716;-99;-977;-8780;597
566667;2;18;2;1120;523;3747;-133;-827;-8676;618
566677;2;18;2;1120;523;3785;-181;-716;-8737;735
566687;2;18;2;1120;515;3800;-227;-527;-8723;816
566697;2;18;2;1120;515;3844;-282;-376;-8662;888
566707;2;18;2;1120;469;3914;-262;-300;-8601;934
566717;2;18;2;1120;469;3993;-223;-356;-8668;1020
566727;2;18;2;1120;457;4058;-242;-523;-8915;1146
566737;2;18;2;1120;491;4080;-329;-804;-9318;1279
566747;2;18;2;1120;498;4114;-456;-1060;-9521;1329
566757;2;18;2;1120;507;4122;-564;-1238;-9627;1308
566767;2;18;2;1120;519;4153;-639;-1485;-9598;1303
566777;2;18;2;1120;551;4204;-605;-1826;-9562;1255
566787;2;18;2;1120;562;4316;-550;-1915;-9469;1216
566797;2;18;2;1120;513;4340;-602;-1913;-9298;1245
566807;2;18;2;1120;583;4289;-635;-2059;-9092;1258
566817;2;18;2;1120;597;4239;-659;-2325;-8831;1209
566827;2;18;2;1120;618;4218;-588;-2528;-8592;1178
566837;2;18;2;1120;649;4149;-480;-2589;-8359;1186
566847;2;18;2;1120;624;4102;-329;-2516;-8171;1165
566857;2;18;2;1120;562;4043;-249;-2345;-8051;1148
566867;2;18;2;1120;518;4002;-252;-2130;-7898;1133
566877;2;18;2;1120;529;3981;-328;-1962;-7699;1084
566887;2;18;2;1120;469;4043;-328;-1737;-7435;1043
566897;2;18;2;1120;438;4074;-366;-1492;-7236;1046
566907;2;18;2;1120;412;4054;-495;-1504;-7058;1066
566917;2;18;2;1120;414;4022;-632;-1710;-6841;1072
566927;2;18;2;1121;438;3996;-591;-1723;-6556;1027
566937;2;18;2;1121;446;3957;-536;-1545;-6312;942
566947;2;18;2;1121;437;3910;-544;-1385;-6223;838
566957;2;18;2;1121;441;3825;-592;-1348;-6085;652
566967;2;18;2;1121;429;3827;-533;-1391;-5964;457
566977;2;18;2;1121;390;3903;-454;-1433;-5854;342
566987;2;18;2;1121;373;3872;-343;-1391;-5655;239
566997;2;18;2;1121;336;3933;-347;-1269;-5607;118
567007;2;18;2;1121;372;3929;-361;-1215;-5562;56
567017;2;18;2;1121;359;3933;-449;-1290;-5582;77
567027;2;18;2;1121;373;3984;-351;-1555;-5696;127
567037;2;18;2;1121;458;4020;-289;-1849;-5889;252
567047;2;18;2;1121;581;4007;-267;-1977;-5903;289
567057;2;18;2;1121;726;3980;-323;-1908;-5618;161
567067;2;18;2;1121;836;3957;-223;-1739;-5198;-56
567077;2;18;2;1121;867;3990;-93;-1646;-4984;-214
567087;2;18;2;1121;944;4083;46;-1629;-5003;-289
567097;2;18;2;1121;973;4147;2;-1562;-5129;-309
567107;2;18;2;1121;1024;4166;-191;-1598;-5132;-372
567117;2;18;2;1121;1045;4193;-443;-1698;-5001;-527
567127;2;18;2;1121;1012;4267;-715;-1860;-4800;-618
567137;2;18;2;1121;884;4287;-950;-2169;-4681;-555
567147;2;18;2;1121;807;4233;-1048;-2687;-4703;-370
567157;2;18;2;1121;891;4146;-936;-3387;-4824;-61
567167;2;18;2;1121;1142;4031;-572;-4010;-5220;249
567177;2;18;2;1121;1372;3886;-88;-4224;-5856;595
567187;2;18;2;1121;1528;3584;148;-3861;-6558;631
567197;2;18;2;1121;1847;3346;399;-3026;-6920;840
567207;2;18;2;1121;2041;3190;499;-2400;-6824;542
567217;2;18;2;1121;2220;3294;695;-1889;-6556;434
567227;2;18;2;1121;2311;3315;497;-1257;-5277;-2
567237;2;18;2;1121;2260;3384;366;-448;-3215;-906
567247;2;18;2;1121;2197;3628;443;503;-1389;-1603
567257;2;18;2;1121;2067;4168;632;1411;199;-2167
567267;2;18;2;1121;1757;4656;660;1672;998;-1862
567277;2;18;2;1121;1328;4888;662;1617;1189;-1350
567287;2;18;2;1121;993;5294;376;1612;745;-270
567297;2;18;2;1121;926;5599;39;1568;200;890
567307;2;18;2;1121;1125;5572;-318;1256;-372;2244
567317;2;18;2;1121;1381;5255;-597;440;-530;2966
567327;2;18;2;1121;1521;4875;-483;-614;-498;3137
567337;2;18;2;1121;1540;4624;367;-1230;-714;3049
567347;2;18;2;1121;1330;4491;1141;-717;-1098;2879
567357;2;18;2;1121;1137;4226;1358;188;-1618;2742
567367;2;18;2;1121;1053;3807;1214;419;-1948;2618
567377;2;18;2;1121;1020;3523;1005;328;-2085;2373
567387;2;18;2;1121;1089;3400;766;110;-1944;2129
567397;2;18;2;1121;1157;3182;660;-108;-1795;1850
567407;2;18;2;1121;1134;3149;642;-268;-1841;1610
567417;2;18;2;1121;1147;3176;509;-413;-2076;1489
567427;2;18;2;1122;1109;3093;415;-482;-2316;1293
567437;2;18;2;1122;986;3063;338;-571;-2524;1025
567447;2;18;2;1122;902;3036;361;-629;-2672;773
567457;2;18;2;1122;905;3089;502;-589;-2715;527
567467;2;18;2;1122;1025;3177;568;-542;-2903;386
567477;2;18;2;1122;1167;3192;421;-722;-3096;274
567487;2;18;2;1122;1237;3251;352;-1010;-3158;84
567497;2;18;2;1122;1216;3365;474;-1025;-3098;-76
567507;2;18;2;1122;1203;3498;638;-839;-3052;-187
567517;2;18;2;1122;1254;3640;653;-828;-3030;-221
567527;2;18;2;1122;1281;3736;597;-1085;-2942;-232
567537;2;18;2;1122;1374;3839;432;-1366;-2806;-287
567547;2;18;2;1122;1402;4056;360;-1464;-2508;-409
567557;2;18;2;1122;1381;4361;357;-895;-2032;-652
567567;2;18;2;1122;1410;4717;409;106;-966;-1163
567577;2;18;2;1122;1493;5210;634;804;171;-1827
567587;2;18;2;1122;1492;5442;554;1316;504;-2478
567597;2;18;2;1122;1331;5413;-101;1085;-535;-2397
567607;2;18;2;1122;652;5622;-1198;-539;-2594;-1320
567617;2;18;2;1122;142;4502;-2207;-4012;-4538;1422
567627;2;18;2;1122;-270;4750;-2705;-6119;-4919;974
567637;2;18;2;1122;-221;4743;-2733;-5070;-3775;2148
567647;2;18;2;1122;194;4113;-2583;-2332;-1720;2342
567657;2;18;2;1122;698;3487;-1048;502;-133;2183
567667;2;18;2;1122;1326;3606;488;3361;344;1892
567677;2;18;2;1122;1745;3634;143;2905;104;1742
567687;2;18;2;1122;2116;3208;-359;-422;-34;1142
567697;2;18;2;1122;1984;3442;-482;-1547;1083;123
567707;2;18;2;1122;1494;3764;-549;-651;2646;-753
567717;2;18;2;1122;993;4262;-399;736;3649;-1261
567727;2;18;2;1122;500;4268;-692;1863;4069;-951
567737;2;18;2;1122;436;4693;-1220;2029;4499;-840
567747;2;18;2;1122;685;4769;-1269;2456;5225;-499
567757;2;18;2;1122;1022;4507;-1523;3154;6214;-456
567767;2;18;2;1122;1586;4483;-1429;3688;7092;-936
567777;2;18;2;1122;1776;4165;-1219;3696;7877;-1111
567787;2;18;2;1122;1725;3839;-998;3286;8655;-1455
567797;2;18;2;1122;1564;3711;-642;2968;9483;-1613
567807;2;18;2;1122;1359;3538;-475;3212;10187;-1623
567817;2;18;2;1122;1181;3421;-535;3368;10773;-1518
567827;2;18;2;1122;1053;3383;-696;3560;11318;-1331
567837;2;18;2;1122;949;3491;-986;3814;11898;-1087
567847;2;18;2;1122;931;3583;-1202;3945;12352;-791
567857;2;18;2;1122;939;3628;-1506;4173;12869;-619
567867;2;18;2;1122;1024;3712;-1730;4310;13346;-582
567877;2;18;2;1122;993;3753;-1869;4155;13803;-536
567887;2;18;2;1122;928;3848;-1905;3623;14275;-492
567897;2;18;2;1122;896;3853;-1799;3111;14957;-458
567907;2;18;2;1122;870;3924;-1583;3027;15751;-458
567917;2;18;2;1122;873;4004;-1432;3067;16398;-374
567927;2;18;2;1123;985;4040;-1418;3308;16931;-304
567937;2;18;2;1123;971;4040;-1516;3422;17352;-216
567947;2;18;2;1123;955;4075;-1624;3274;17681;-94
567957;2;18;2;1123;995;4068;-1666;3146;17995;-120
567967;2;18;2;1123;966;4223;-1599;3160;18060;-39
567977;2;18;2;1123;954;4323;-1724;3409;17769;169
567987;2;18;2;1123;842;4318;-1772;3860;17340;526
567997;2;18;2;1123;701;4178;-1943;4192;16890;732
568007;2;18;2;1123;601;4017;-2157;4479;16740;720
568017;2;18;2;1123;370;3992;-2235;4409;16758;718
568027;2;18;2;1123;190;3905;-2100;3715;16630;695
568037;2;18;2;1123;68;3888;-1908;2748;16302;855
568047;2;18;2;1123;65;3760;-1752;1890;15736;1045
568057;2;18;2;1123;28;3836;-1672;1003;15374;947
568067;2;18;2;1123;-58;3832;-1427;289;15124;783
568077;2;18;2;1123;27;3807;-1123;74;15012;515
568087;2;18;2;1123;165;4045;-133;519;15259;-51
568097;2;18;2;1123;434;4998;2602;4651;15504;-722
568107;2;18;2;1123;835;4913;2323;10959;14762;-1089
568117;2;18;2;1123;1256;4029;456;10253;13118;-1390
568127;2;18;2;1123;1500;3806;-486;6116;11690;-1901
568137;2;18;2;1123;1269;4199;-750;2903;10947;-2214
568147;2;18;2;1123;896;4530;-654;1014;10486;-2097
568157;2;18;2;1123;725;4864;-340;386;9931;-1710
568167;2;18;2;1123;722;4948;-227;210;9224;-1240
568177;2;18;2;1123;765;4971;-74;-81;8209;-930
568187;2;18;2;1123;852;4765;-98;-549;6950;-791
568197;2;18;2;1123;725;4540;-169;-1362;5715;-787
568207;2;18;2;1123;617;4286;-106;-2141;4808;-863
568217;2;18;2;1123;524;4076;80;-2514;4455;-916
568227;2;18;2;1123;563;3951;576;-2487;4441;-977
568237;2;18;2;1123;687;3974;1367;-1850;4303;-906
568247;2;18;2;1123;840;3935;1695;-677;3683;-531
568257;2;18;2;1123;1026;3813;1233;83;3060;-184
568267;2;18;2;1123;1286;3600;599;-271;2784;-73
568277;2;18;2;1123;1374;3550;222;-1254;2747;-226
568287;2;18;2;1123;1325;3695;372;-1929;2565;-353
568297;2;18;2;1123;1257;3863;570;-1719;2192;-421
568307;2;18;2;1123;1127;3872;547;-1341;1808;-471
568317;2;18;2;1123;1050;3918;603;-1351;1264;-443
568327;2;18;2;1123;895;3932;562;-1069;747;-289
568337;2;18;2;1123;881;3856;222;-981;192;-113
568347;2;18;2;1123;973;3768;69;-1349;-281;36
568357;2;18;2;1123;1067;3823;-25;-1631;-662;84
568367;2;18;2;1123;1245;3872;22;-1445;-735;-34
568377;2;18;2;1123;1450;3869;89;-1211;-746;-143
568387;2;18;2;1123;1581;3747;91;-1198;-845;-160
568397;2;18;2;1123;1585;3633;11;-1508;-972;-391
568407;2;18;2;1123;1488;3599;58;-1570;-1200;-431
568417;2;18;2;1123;1278;3652;226;-848;-2003;251
568427;2;18;2;1124;1514;3485;-276;-410;-1969;132
568437;2;18;2;1124;1303;3789;-10;-961;-1127;-550
568447;2;18;2;1124;1058;3562;289;-470;-1721;-39
568457;2;18;2;1124;1304;3603;-112;-107;-1996;-66
568467;2;18;2;1124;1102;3881;-70;-802;-1815;-143
568477;2;18;2;1124;1162;3619;-45;-886;-2058;110
568487;2;18;2;1124;1122;3860;-49;-634;-2216;105
568497;2;18;2;1124;1118;3724;-87;-515;-2221;302
568507;2;18;2;1124;1175;3717;-75;-833;-2332;297
568517;2;18;2;1124;1240;3761;24;-1312;-2504;280
568527;2;18;2;1124;1284;3784;163;-1498;-2817;367
568537;2;18;2;1124;1276;3809;163;-1257;-3094;524
568547;2;18;2;1124;1269;3775;-12;-967;-3231;623
568557;2;18;2;1124;1296;3831;-38;-704;-3204;592
568567;2;18;2;1124;1301;3898;-26;-583;-3196;596
568577;2;18;2;1124;1273;4038;47;-779;-3190;524
568587;2;18;2;1124;1174;4123;131;-827;-3425;614
568597;2;18;2;1124;1130;4074;76;-760;-3721;740
568607;2;18;2;1124;1063;4056;-125;-645;-3690;771
568617;2;18;2;1124;1048;3997;-303;-483;-3249;776
568627;2;18;2;1124;1126;3959;-276;-376;-2612;631
568637;2;18;2;1124;1239;4033;-89;-385;-2151;554
568647;2;18;2;1124;1289;4067;258;-521;-1945;661
568657;2;18;2;1124;1302;4072;365;-696;-2029;829
568667;2;18;2;1124;1281;4029;287;-630;-2037;939
568677;2;18;2;1124;1243;3949;164;-494;-1917;966
568687;2;18;2;1124;1162;3878;45;-367;-1616;902
568697;2;18;2;1124;1133;3828;69;-279;-1286;817
568707;2;18;2;1124;1147;3794;14;-261;-1052;695
568717;2;18;2;1124;1175;3748;-92;-393;-938;547
568727;2;18;2;1124;998;3826;-147;-648;-967;476
568737;2;18;2;1124;842;3882;-102;-849;-1189;585
568747;2;18;2;1124;769;3959;32;-734;-1462;632
568757;2;18;2;1124;802;4126;161;-282;-1683;745
568767;2;18;2;1124;967;4227;155;204;-1822;964
568777;2;18;2;1124;1154;4150;286;458;-1621;795
568787;2;18;2;1124;1183;4154;521;585;-1360;594
568797;2;18;2;1124;1188;4089;726;396;-1344;501
568807;2;18;2;1124;925;4097;621;-134;-1616;663
568817;2;18;2;1124;416;3919;452;-852;-2062;1195
568827;2;18;2;1124;-5;3701;55;-1295;-2736;1927
568837;2;18;2;1124;-139;3380;-400;-799;-3102;2709
568847;2;18;2;1124;-137;3078;-814;-220;-2935;3138
568857;2;18;2;1124;138;2622;-1255;-547;-2605;3414
568867;2;18;2;1124;477;2221;-1024;-1382;-2189;3265
568877;2;18;2;1124;589;1941;-558;-1692;-2271;2905
568887;2;18;2;1124;591;1662;349;-1342;-2289;2570
568897;2;18;2;1124;430;1544;1259;-407;-2372;2045
568907;2;18;2;1124;261;1290;1094;184;-3059;1733
568917;2;18;2;1124;178;714;563;55;-3745;1709
568927;2;18;2;1125;-276;112;256;-136;-3956;1790
568937;2;18;2;1125;-767;-129;-96;-413;-4094;1839
568947;2;18;2;1125;-665;5;-283;-275;-4332;2040
568957;2;18;2;1125;-654;-239;-402;785;-4562;2625
568967;2;18;2;1125;-499;-523;-598;1297;-4814;2939
568977;2;18;2;1125;-197;-208;-435;1206;-4763;2542
568987;2;18;2;1125;411;303;16;1273;-4317;2196
568997;2;18;2;1125;810;662;324;1652;-4315;1398
569007;2;18;2;1125;835;736;201;1898;-4401;644
569017;2;18;2;1125;532;909;209;2037;-4402;35
569027;2;18;2;1125;376;1013;-33;2347;-4652;-8
569037;2;18;2;1125;403;1002;-223;2667;-4847;5
569047;2;18;2;1125;473;1228;-267;2545;-5215;162
569057;2;18;2;1125;623;1553;-156;2075;-6018;562
569067;2;18;2;1125;1093;1976;-267;1622;-6546;696
569077;2;18;2;1125;1491;2453;-218;952;-6543;458
569087;2;18;2;1125;1929;2912;-535;835;-6506;1
569097;2;18;2;1125;2326;3315;-1086;1707;-6649;-472
569107;2;18;2;1125;2600;3708;-1625;3135;-6527;-525
569117;2;18;2;1125;2587;3214;-1905;4382;-5377;-450
569127;2;18;2;1125;2230;3563;-1844;2789;-3752;-407
569137;2;18;2;1125;1941;4582;-1433;619;-1910;-343
569147;2;18;2;1125;1863;5566;-1709;-195;-343;-110
569157;2;18;2;1125;1956;6627;-1771;748;582;132
569167;2;18;2;1125;2292;7191;-2208;3419;990;232
569177;2;18;2;1125;2291;7233;-2524;6026;159;182
569187;2;18;2;1125;1943;6985;-2938;8069;-1784;227
569197;2;18;2;1125;1354;6426;-3626;9055;-2931;544
569207;2;18;2;1125;485;6053;-3865;7196;-2063;1356
569217;2;18;2;1125;-85;6263;-2712;5111;-193;2517
569227;2;18;2;1125;289;6354;-3258;313;833;3953
569237;2;18;2;1125;645;6783;-2644;-3832;848;5217
569247;2;18;2;1125;1199;7350;-2764;-4296;-2;5934
569257;2;18;2;1125;2015;7449;-3736;-2868;-658;6047
569267;2;18;2;1125;2568;7031;-4728;-695;-770;5597
569277;2;18;2;1125;2829;5988;-5644;986;486;4449
569287;2;18;2;1125;3089;5173;-5410;947;2785;2868
569297;2;18;2;1125;2559;4886;-3997;-335;4835;1182
569307;2;18;2;1125;1720;4892;-2353;-2087;5086;674
569317;2;18;2;1125;1546;4999;-1436;-1919;4421;604
569327;2;18;2;1125;1522;5220;-1730;374;3750;935
569337;2;18;2;1125;1951;4697;-2467;2030;3657;1530
569347;2;18;2;1125;2802;4084;-2522;1240;3722;2141
569357;2;18;2;1125;2870;4077;-2137;-1580;2622;1983
569367;2;18;2;1125;2688;4282;-2181;-1764;1427;1785
569377;2;18;2;1125;2724;4153;-2945;587;1274;1770
569387;2;18;2;1125;2963;3468;-3572;2680;1920;1865
569397;2;18;2;1125;3435;2227;-4486;3095;2566;2014
569407;2;18;2;1125;3648;1535;-5123;754;3693;1517
569417;2;18;2;1125;3428;1392;-4799;-2783;4599;1111
569427;2;18;2;1126;2967;1850;-3692;-6794;4777;885
569437;2;18;2;1126;2406;2844;-2770;-9487;4281;1136
569447;2;18;2;1126;1955;4083;-2264;-11033;4001;2153
569457;2;18;2;1126;2180;5275;-2401;-11688;4831;3386
569467;2;18;2;1126;3478;5758;-2215;-12515;6705;4912
569477;2;18;2;1126;5609;5227;-994;-13981;9996;4363
569487;2;18;2;1126;6629;5470;1009;-14436;12308;3564
569497;2;18;2;1126;8017;4788;2355;-13299;13692;3230
569507;2;18;2;1126;8145;3923;3438;-12512;14898;2816
569517;2;18;2;1126;7288;2286;3637;-12820;16529;2578
569527;2;18;2;1126;5353;652;4457;-15012;19690;1494
569537;2;18;2;1126;2927;-356;6125;-16873;20645;258
569547;2;18;2;1126;1128;-478;6566;-15320;17170;51
569557;2;18;2;1126;-726;464;5191;-10594;11174;1682
569567;2;18;2;1126;-1772;954;2208;-5864;6532;3645
569577;2;18;2;1126;-2025;928;-675;-4661;5724;4243
569587;2;18;2;1126;-1972;343;-1806;-7612;7435;4551
569597;2;18;2;1126;-1462;-532;-479;-13078;9169;4315
569607;2;18;2;1126;-832;-591;1873;-18643;9349;4232
569617;2;18;2;1126;905;-90;11207;-12105;8983;3694
569627;2;18;2;1126;905;751;6396;-208;8298;2983
569637;2;18;2;1126;2503;-1289;7531;-8704;6128;3918
569647;2;18;2;1126;2286;-521;5935;-11959;5288;3575
569657;2;18;2;1126;1474;684;5228;-13415;5014;3811
569667;2;18;2;1126;1095;1085;3984;-12483;4422;4357
569677;2;18;2;1126;1720;579;3373;-12206;4118;5092
569687;2;18;2;1126;3101;216;4268;-12216;3945;4273
569697;2;18;2;1126;3613;387;5227;-12221;3615;3560
569707;2;18;2;1126;3806;-59;5740;-11869;3305;2853
569717;2;18;2;1126;3251;-561;4974;-13418;2884;2761
569727;2;18;2;1126;2906;-1389;4209;-14854;2621;2947
569737;2;18;2;1126;2647;-1655;3871;-14882;3026;2339
569747;2;18;2;1126;2243;-1200;4476;-13300;3393;1323
569757;2;18;2;1126;2311;-456;5672;-10050;3211;488
569767;2;18;2;1126;3010;215;7344;-7207;3265;875
569777;2;18;2;1126;3633;458;8708;-6882;2343;1693
569787;2;18;2;1126;4328;-231;7802;-6855;-341;2850
569797;2;18;2;1126;3860;-571;4837;-4180;-374;4576
569807;2;18;2;1126;6632;-3345;3762;494;2954;4714
569817;2;18;2;1126;5755;-2457;4326;3538;7154;1064
569827;2;18;2;1126;3367;-806;4905;4639;9490;179
569837;2;18;2;1126;2939;-1979;2955;3291;11605;-2308
569847;2;18;2;1126;1966;-2639;1795;1656;13780;-4839
569857;2;18;2;1126;535;-2659;2600;-986;12679;-6942
569867;2;18;2;1126;-1148;-935;4069;-2862;8188;-7191
569877;2;18;2;1126;-3735;1646;4423;-477;1318;-3963
569887;2;18;2;1126;-4170;2136;2663;2188;-5466;1037
569897;2;18;2;1126;-1815;1112;2285;2880;-7089;2881
569907;2;18;2;1126;-506;1107;3463;4010;-3398;1920
569917;2;18;2;1126;771;1621;6081;3147;-242;1494
569927;2;18;2;1127;2332;1923;6137;-607;-1516;1213
569937;2;18;2;1127;3686;1853;5116;-3148;-2040;579
569947;2;18;2;1127;3947;1561;3706;-3691;-1305;-737
569957;2;18;2;1127;3180;875;3086;-4142;110;-1956
569967;2;18;2;1127;2536;436;3262;-3747;1307;-2975
569977;2;18;2;1127;1796;409;3256;-3153;1816;-3079
569987;2;18;2;1127;1413;197;3237;-2517;1718;-2726
569997;2;18;2;1127;1180;427;3030;-847;1708;-2162
570007;2;18;2;1127;1328;1026;3079;1724;1948;-1072
570017;2;18;2;1127;2363;1133;4059;3511;1508;547
570027;2;18;2;1127;3193;1217;4695;2118;-216;1459
570037;2;18;2;1127;3267;1074;4290;-609;-688;1009
570047;2;18;2;1127;2721;994;3795;-1282;1083;198
570057;2;18;2;1127;2261;763;3965;-752;3284;-581
570067;2;18;2;1127;1828;485;4233;-696;3868;-1042
570077;2;18;2;1127;1398;284;4168;-1086;3606;-1086
570087;2;18;2;1127;1177;105;3954;-1226;3387;-920
570097;2;18;2;1127;1241;58;3846;-1051;3509;-1061
570107;2;18;2;1127;1244;184;3797;-770;3737;-1287
570117;2;18;2;1127;1142;283;3873;-570;3614;-1378
570127;2;18;2;1127;1018;291;3927;-290;3098;-1303
570137;2;18;2;1127;581;472;4086;-203;2384;-925
570147;2;18;2;1127;439;321;4172;-50;1817;-478
570157;2;18;2;1127;192;387;4200;130;1705;-408
570167;2;18;2;1127;300;332;4236;371;1601;-104
570177;2;18;2;1127;529;343;4439;472;1422;90
570187;2;18;2;1127;709;428;4722;611;979;240
570197;2;18;2;1127;793;491;4478;601;584;343
570207;2;18;2;1127;917;389;3984;349;672;102
570217;2;18;2;1127;945;395;3566;34;1116;-452
570227;2;18;2;1127;866;408;3538;-422;1373;-817
570237;2;18;2;1127;828;361;3760;-690;1143;-974
570247;2;18;2;1127;817;414;4044;-690;753;-980
570257;2;18;2;1127;731;531;4290;-489;204;-832
570267;2;18;2;1127;666;579;4373;-90;-564;-276
570277;2;18;2;1127;798;465;4106;400;-1061;359
570287;2;18;2;1127;1025;457;3927;700;-1039;652
570297;2;18;2;1127;1250;494;3835;796;-753;710
570307;2;18;2;1127;1534;440;3683;905;-260;598
570317;2;18;2;1127;1799;427;3684;918;287;246
570327;2;18;2;1127;1804;529;3742;783;598;-69
570337;2;18;2;1127;1718;602;3780;403;952;-291
570347;2;18;2;1127;1468;633;3884;90;1405;-564
570357;2;18;2;1127;1211;707;3916;-17;1769;-830
570367;2;18;2;1127;875;810;3903;103;1756;-824
570377;2;18;2;1127;737;809;3785;402;1323;-470
570387;2;18;2;1127;706;824;3844;627;757;118
570397;2;18;2;1127;715;852;4142;656;36;714
570407;2;18;2;1127;815;949;4353;539;-529;1302
570417;2;18;2;1127;1119;931;4359;348;-477;1624
570427;2;18;2;1128;1643;818;4108;120;184;1456
570437;2;18;2;1128;2039;721;3476;-58;1015;828
570447;2;18;2;1128;2210;674;2803;-103;1367;95
570457;2;18;2;1128;2089;739;2610;-188;1034;-507
570467;2;18;2;1128;1688;949;3239;-286;266;-636
570477;2;18;2;1128;1136;1208;4345;-57;-735;-222
570487;2;18;2;1128;736;1359;5014;738;-1365;518
570497;2;18;2;1128;790;1347;4777;1592;-1185;1073
570507;2;18;2;1128;1092;1261;4094;1697;-201;1169
570517;2;18;2;1128;1578;1172;3570;1484;865;955
570527;2;18;2;1128;1775;1287;3246;1241;1407;780
570537;2;18;2;1128;1599;1525;3572;1240;1271;865
570547;2;18;2;1128;1422;1526;3747;1241;942;977
570557;2;18;2;1128;1272;1576;3891;674;1484;531
570567;2;18;2;1128;924;1696;4426;59;2270;55
570577;2;18;2;1128;562;1684;5162;-68;2753;179
570587;2;18;2;1128;585;1285;4725;338;3185;302
570597;2;18;2;1128;866;914;4051;479;3740;42
570607;2;18;2;1128;841;722;3860;202;3984;-356
570617;2;18;2;1128;412;649;3863;217;3763;-647
570627;2;18;2;1128;-23;589;3880;196;3464;-571
570637;2;18;2;1128;-217;525;4407;-151;3296;-387
570647;2;18;2;1128;-283;467;4810;-492;2919;-181
570657;2;18;2;1128;-59;383;4785;-700;2850;-82
570667;2;18;2;1128;134;389;4830;-1030;2980;-289
570677;2;18;2;1128;99;430;4768;-1139;2857;-508
570687;2;18;2;1128;182;241;4230;-612;2466;-566
570697;2;18;2;1128;89;26;3893;-257;1589;-434
570707;2;18;2;1128;-72;-94;3796;-560;22;91
570717;2;18;2;1128;-135;-193;3694;-1141;-1460;742
570727;2;18;2;1128;-268;-354;3961;-1213;-2123;1074
570737;2;18;2;1128;-321;-472;4812;365;-2476;1258
570747;2;18;2;1128;-130;-503;5094;2120;-3039;1193
570757;2;18;2;1128;32;-312;4937;2177;-3975;1445
570767;2;18;2;1128;532;-543;4632;2480;-4090;1449
570777;2;18;2;1128;905;-500;4239;3149;-3115;687
570787;2;18;2;1128;1212;-470;3897;3805;-2065;-133
570797;2;18;2;1128;1301;-412;3993;4393;-1763;-705
570807;2;18;2;1128;1124;-213;4254;5138;-2132;-820
570817;2;18;2;1128;792;62;4323;5613;-2657;-627
570827;2;18;2;1128;682;262;4618;5731;-2921;-275
570837;2;18;2;1128;623;486;5344;5935;-2852;-111
570847;2;18;2;1128;460;1093;6064;6074;-2565;-243
570857;2;18;2;1128;543;1592;5991;6355;-2062;-205
570867;2;18;2;1128;894;1634;5194;7402;-1154;-370
570877;2;18;2;1128;1147;1606;4247;8551;-779;-748
570887;2;18;2;1128;1072;1761;3615;8683;-2000;-642
570897;2;18;2;1128;1375;1630;2654;7500;-3415;55
570907;2;18;2;1128;1569;1593;2341;5246;-3693;-137
570917;2;18;2;1128;1226;1869;3479;2271;-3422;-518
570927;2;18;2;1129;874;2288;6616;1208;-3217;-717
570937;2;18;2;1129;585;2487;7221;7930;-2888;-694
570947;2;18;2;1129;827;2036;4015;8676;-2847;125
570957;2;18;2;1129;1319;1171;3028;6469;-2666;70
570967;2;18;2;1129;1338;1198;2936;6483;-2281;-271
570977;2;18;2;1129;1142;1605;2807;7722;-2553;-171
570987;2;18;2;1129;1133;1813;2723;7977;-3526;72
570997;2;18;2;1129;1247;1962;2941;7908;-4337;26
571007;2;18;2;1129;1284;2228;3355;8405;-4416;-292
571017;2;18;2;1129;1078;2600;3867;8933;-3902;-640
571027;2;18;2;1129;992;2821;4148;8558;-3260;-950
571037;2;18;2;1129;1203;2774;3965;7630;-2992;-1166
571047;2;18;2;1129;1405;2694;3442;7072;-3480;-1010
571057;2;18;2;1129;1585;2619;2789;6941;-4184;-685
571067;2;18;2;1129;1633;2612;2259;7033;-4864;-443
571077;2;18;2;1129;1600;2602;1810;7088;-5412;-432
571087;2;18;2;1129;1583;2466;1535;6799;-5494;-567
571097;2;18;2;1129;1641;2644;1751;6347;-5290;-1009
571107;2;18;2;1129;1598;2954;2425;7142;-4989;-1232
571117;2;18;2;1129;1597;3074;2770;8915;-4532;-1296
571127;2;18;2;1129;1573;3053;2729;9442;-3905;-1378
571137;2;18;2;1129;1653;2889;3049;8741;-3278;-1526
571147;2;18;2;1129;1639;2868;3000;8124;-3257;-1552
571157;2;18;2;1129;1758;2678;2420;7048;-3821;-1256
571167;2;18;2;1129;1821;2509;1982;6342;-3927;-1050
571177;2;18;2;1129;1757;2384;1708;6083;-3583;-1311
571187;2;18;2;1129;1699;2827;1861;6764;-2984;-1797
571197;2;18;2;1129;1782;2650;1762;8133;-2129;-2179
571207;2;18;2;1129;1772;2579;1784;8895;-1511;-2774
571217;2;18;2;1129;1653;2660;1837;9368;-950;-3015
571227;2;18;2;1129;1556;2683;1981;9716;-200;-3185
571237;2;18;2;1129;1454;2897;2274;9758;542;-3547
571247;2;18;2;1129;1275;3367;2634;9705;1126;-3831
571257;2;18;2;1129;982;3715;3028;10055;1550;-3900
571267;2;18;2;1129;674;3989;3284;11224;2055;-3999
571277;2;18;2;1129;264;4314;3427;13013;2618;-3692
571287;2;18;2;1129;-53;4202;3176;14701;3172;-3064
571297;2;18;2;1129;59;4160;2825;15837;3979;-2970
571307;2;18;2;1129;711;4077;2492;16855;4460;-2676
571317;2;18;2;1129;1613;3722;1884;18360;4411;-2325
571327;2;18;2;1129;2249;3299;1063;19973;4046;-2244
571337;2;18;2;1129;2492;3045;231;20888;3157;-2263
571347;2;18;2;1129;2292;2981;-586;20468;2036;-2470
571357;2;18;2;1129;1586;3313;-1003;18367;1135;-2426
571367;2;18;2;1129;838;3727;-645;15494;302;-1710
571377;2;18;2;1129;143;3961;27;13460;-507;-117
571387;2;18;2;1129;-47;2202;571;13410;-825;-238
571397;2;18;2;1129;-383;2478;161;15093;-163;-2137
571407;2;18;2;1129;-319;3600;-746;16904;916;-2813
571417;2;18;2;1129;377;3688;-1499;17589;2160;-2743
571427;2;18;2;1130;1142;3301;-2078;17382;2916;-2896
571437;2;18;2;1130;1372;3442;-2441;16717;2751;-2892
571447;2;18;2;1130;1300;3805;-2775;15251;1347;-2248
571457;2;18;2;1130;1017;4121;-2917;12447;-340;-1552
571467;2;18;2;1130;565;4314;-2644;9316;-1588;-1091
571477;2;18;2;1130;44;4244;-2150;7670;-1963;-735
571487;2;18;2;1130;-306;3850;-1793;8341;-1775;-865
571497;2;18;2;1130;-244;3684;-1970;10282;-1223;-1252
571507;2;18;2;1130;-35;3799;-2470;11441;-681;-1255
571517;2;18;2;1130;287;3518;-2849;10921;-554;-1068
571527;2;18;2;1130;491;3463;-2902;9161;-1013;-970
571537;2;18;2;1130;440;3674;-2834;7031;-1791;-729
571547;2;18;2;1130;272;3947;-2728;5607;-2417;-546
571557;2;18;2;1130;171;4093;-2607;4907;-2543;-192
571567;2;18;2;1130;179;4006;-2380;5063;-2007;254
571577;2;18;2;1130;302;3811;-2498;5973;-1675;935
571587;2;18;2;1130;688;3225;-2949;7019;-1352;1895
571597;2;18;2;1130;1285;2561;-3808;6832;-719;2169
571607;2;18;2;1130;1965;2019;-4453;4988;396;1952
571617;2;18;2;1130;2558;1761;-4656;2156;1640;1402
571627;2;18;2;1130;2971;1575;-4327;-818;2345;616
571637;2;18;2;1130;3261;1465;-3522;-3254;2270;-319
571647;2;18;2;1130;3075;1688;-2581;-4562;1624;-935
571657;2;18;2;1130;2467;2164;-1826;-4532;724;-959
571667;2;18;2;1130;2184;2079;-1415;-3358;360;-833
571677;2;18;2;1130;2082;2226;-1141;-1291;562;-932
571687;2;18;2;1130;1960;2469;-1099;991;313;-741
571697;2;18;2;1130;2030;2257;-1583;3191;-153;-364
571707;2;18;2;1130;2220;1745;-2302;5111;-327;-260
571717;2;18;2;1130;2167;1544;-3084;5964;-225;-549
571727;2;18;2;1130;2212;1212;-3648;5667;113;-752
571737;2;18;2;1130;2229;1072;-3852;4806;406;-1084
571747;2;18;2;1130;1948;1392;-3821;3469;306;-1083
571757;2;18;2;1130;1687;1727;-3822;2137;-84;-825
571767;2;18;2;1130;1604;2164;-3755;1232;-362;-532
571777;2;18;2;1130;1579;2535;-3736;1133;-724;6
571787;2;18;2;1130;1519;2587;-3902;1624;-1079;414
571797;2;18;2;1130;1403;2746;-4198;1713;-1260;539
571807;2;18;2;1130;1206;3021;-4334;703;-1093;482
571817;2;18;2;1130;1074;3304;-4195;-586;-674;132
571827;2;18;2;1130;827;3728;-3932;-1233;-188;-256
571837;2;18;2;1130;607;4022;-3725;-829;146;-531
571847;2;18;2;1130;502;4141;-3817;243;313;-799
571857;2;18;2;1130;641;3919;-4180;1443;656;-1528
571867;2;18;2;1130;845;3904;-4599;2476;1316;-2306
571877;2;18;2;1130;1088;3698;-4881;2737;1759;-2707
571887;2;18;2;1130;1050;3563;-4743;2041;1385;-3136
571897;2;18;2;1130;933;3542;-4536;1030;311;-3211
571907;2;18;2;1130;733;3474;-4482;329;-780;-3049
571917;2;18;2;1130;639;3332;-4371;105;-1476;-3081
571927;2;18;2;1131;598;2969;-4233;476;-1849;-3537
571937;2;18;2;1131;458;2674;-4155;1326;-2324;-4056
571947;2;18;2;1131;369;2241;-4248;2073;-3091;-4437
571957;2;18;2;1131;467;1831;-4774;2259;-3534;-4833
571967;2;18;2;1131;455;1621;-5104;1673;-3300;-5286
571977;2;18;2;1131;370;1439;-5275;384;-2706;-5419
571987;2;18;2;1131;221;1487;-5073;-1479;-2006;-5424
571997;2;18;2;1131;-49;1833;-4502;-3728;-1559;-5130
572007;2;18;2;1131;-308;2225;-3753;-5651;-1382;-4574
572017;2;18;2;1131;-533;2610;-3059;-6325;-1273;-3934
572027;2;18;2;1131;-744;3045;-2685;-5623;-1140;-2993
572037;2;18;2;1131;-796;3327;-2642;-4209;-758;-2020
572047;2;18;2;1131;-614;3430;-2901;-2920;-315;-1239
572057;2;18;2;1131;-399;3316;-3118;-2030;283;-697
572067;2;18;2;1131;51;3110;-3457;-1377;844;-458
572077;2;18;2;1131;645;2939;-4007;-1344;1589;-610
572087;2;18;2;1131;1056;2929;-4207;-2034;2291;-1219
572097;2;18;2;1131;1198;2966;-3974;-3006;2335;-1720
572107;2;18;2;1131;1160;2964;-3580;-3621;1756;-2064
572117;2;18;2;1131;819;3051;-3171;-3519;1062;-2183
572127;2;18;2;1131;375;3034;-2841;-2899;365;-1918
572137;2;18;2;1131;116;2941;-2767;-2368;-47;-1504
572147;2;18;2;1131;-79;2784;-2763;-2284;-34;-1248
572157;2;18;2;1131;-98;2738;-2774;-2329;358;-1171
572167;2;18;2;1131;0;2898;-2760;-2209;760;-1159
572177;2;18;2;1131;158;2874;-2622;-1821;907;-1196
572187;2;18;2;1131;185;2778;-2513;-1144;685;-1280
572197;2;18;2;1131;224;2498;-2541;-259;199;-1450
572207;2;18;2;1131;164;2329;-2580;502;-334;-1884
572217;2;18;2;1131;-31;2179;-2484;1038;-1154;-2037
572227;2;18;2;1131;-167;1912;-2551;1470;-2071;-1951
572237;2;18;2;1131;-398;1771;-2620;1811;-2792;-1716
572247;2;18;2;1131;-775;1622;-2557;2095;-3560;-1158
572257;2;18;2;1131;-1282;1656;-2670;2325;-4248;-108
572267;2;18;2;1131;-1783;1598;-2897;2462;-4670;1248
572277;2;18;2;1131;-2234;1856;-3280;2088;-4579;2318
572287;2;18;2;1131;-2346;2216;-3889;936;-3734;3560
572297;2;18;2;1131;-2097;2266;-4706;-595;-1533;4161
572307;2;18;2;1131;-1543;2282;-5072;-1893;1887;3830
572317;2;18;2;1131;-934;2515;-4981;-3139;4893;3352
572327;2;18;2;1131;-373;2495;-4471;-4631;6554;2956
572337;2;18;2;1131;-14;2622;-3700;-6223;6513;2700
572347;2;18;2;1131;74;3120;-3022;-7515;5094;2944
572357;2;18;2;1131;40;3740;-2747;-8365;3062;3585
572367;2;18;2;1131;101;4173;-2820;-8788;2013;3909
572377;2;18;2;1131;194;4478;-3022;-8838;2023;3545
572387;2;18;2;1131;380;4497;-3077;-8149;2971;2575
572397;2;18;2;1131;749;4376;-3017;-7204;4390;1042
572407;2;18;2;1131;1119;4185;-2739;-6540;5601;-555
572417;2;18;2;1131;1439;3808;-2198;-6235;6068;-2154
572427;2;18;2;1132;1495;3615;-1641;-5922;5648;-3775
572437;2;18;2;1132;1247;3737;-1093;-5419;4432;-4868
572447;2;18;2;1132;767;3891;-774;-4719;2823;-5208
572457;2;18;2;1132;102;3863;-541;-3745;1258;-5132
572467;2;18;2;1132;-676;3934;-510;-2337;52;-4762
572477;2;18;2;1132;-1210;3830;-595;-887;-707;-4053
572487;2;18;2;1132;-1355;3366;-867;505;-939;-3534
572497;2;18;2;1132;-1552;3145;-1285;1638;-240;-3330
572507;2;18;2;1132;-1608;2981;-1713;2125;1024;-2932
572517;2;18;2;1132;-1415;2700;-2106;1713;2827;-2714
572527;2;18;2;1132;-1222;2709;-2217;591;4609;-2679
572537;2;18;2;1132;-844;2694;-2104;-627;5844;-2499
572547;2;18;2;1132;-509;2700;-1738;-1427;6277;-1926
572557;2;18;2;1132;-233;2758;-1430;-1793;5907;-1267
572567;2;18;2;1132;-104;2856;-1117;-1939;5012;-403
572577;2;18;2;1132;30;2712;-867;-1912;3864;571
572587;2;18;2;1132;80;2691;-830;-1724;2839;1392
572597;2;18;2;1132;-23;2712;-720;-1722;2138;1903
572607;2;18;2;1132;-88;2350;-501;-1480;1645;2014
572617;2;18;2;1132;-10;2278;-714;-597;1657;1531
572627;2;18;2;1132;56;2278;-1138;483;2625;959
572637;2;18;2;1132;229;2219;-1434;1240;3994;254
572647;2;18;2;1132;467;2113;-1486;1508;5118;-521
572657;2;18;2;1132;492;2028;-1487;1640;5754;-1229
572667;2;18;2;1132;315;2002;-1368;1671;5933;-1838
572677;2;18;2;1132;-27;2124;-1098;1641;5505;-2054
572687;2;18;2;1132;-358;2190;-894;1905;4497;-1811
572697;2;18;2;1132;-730;2428;-999;2456;3362;-1200
572707;2;18;2;1132;-924;2649;-1350;2928;2407;-239
572717;2;18;2;1132;-906;2616;-1765;3092;2029;618
572727;2;18;2;1132;-855;2567;-2224;3148;2222;973
572737;2;18;2;1132;-538;2591;-2861;3126;2949;896
572747;2;18;2;1132;28;2640;-3601;2749;4238;475
572757;2;18;2;1132;651;2644;-3883;1967;5655;-322
572767;2;18;2;1132;1116;2798;-3789;829;6297;-1059
572777;2;18;2;1132;1422;2935;-3557;-573;6160;-1801
572787;2;18;2;1132;1274;3293;-2950;-1651;5402;-2300
572797;2;18;2;1132;991;3619;-2380;-1693;4016;-2207
572807;2;18;2;1132;771;3686;-2085;-885;2453;-1639
572817;2;18;2;1132;598;3742;-2116;401;1023;-997
572827;2;18;2;1132;598;3805;-2347;1479;-87;-237
572837;2;18;2;1132;631;3785;-2913;1875;-437;379
572847;2;18;2;1132;843;3549;-3134;1838;-81;561
572857;2;18;2;1132;1037;3517;-3342;1924;498;302
572867;2;18;2;1132;1257;3557;-3251;1885;853;109
572877;2;18;2;1132;1432;3498;-3242;1786;839;77
572887;2;18;2;1132;1579;3306;-3114;1988;557;291
572897;2;18;2;1132;1634;3109;-3048;2109;74;678
572907;2;18;2;1132;1653;2945;-2973;1892;-350;1089
572917;2;18;2;1132;1737;2718;-2758;1782;-679;1508
