timestamp;subject_id;activity;label;seq;ax;ay;az;gx;gy;gz
468427;2;18;2;924;1907;3900;-429;-188;1348;-500
468437;2;18;2;924;1863;3946;-457;18;1164;-421
468447;2;18;2;924;1703;4009;-542;414;1096;-335
468457;2;18;2;924;1612;4070;-562;782;1218;-258
468467;2;18;2;924;1491;4153;-656;960;1470;-211
468477;2;18;2;924;1410;4237;-736;767;1795;-213
468487;2;18;2;924;1461;4307;-765;504;2178;-220
468497;2;18;2;924;1557;4319;-660;579;2627;-352
468507;2;18;2;924;1685;4224;-526;924;2911;-495
468517;2;18;2;924;1717;4051;-548;875;2940;-572
468527;2;18;2;924;1755;3784;-652;172;2750;-534
468537;2;18;2;924;1715;3564;-627;-615;2596;-524
468547;2;18;2;924;1607;3489;-345;-824;2583;-492
468557;2;18;2;924;1537;3512;-77;-218;2667;-480
468567;2;18;2;924;1595;3545;16;670;2751;-424
468577;2;18;2;924;1761;3565;-73;1389;2900;-452
468587;2;18;2;924;1813;3664;-142;1892;3092;-603
468597;2;18;2;924;1757;3769;-245;2182;3163;-740
468607;2;18;2;924;1616;3809;-435;2446;3146;-801
468617;2;18;2;924;1373;3906;-620;2634;3151;-795
468627;2;18;2;924;1104;3985;-866;2566;3028;-547
468637;2;18;2;924;907;4093;-974;2403;2814;-213
468647;2;18;2;924;843;4090;-1148;2288;2656;115
468657;2;18;2;924;923;4078;-1321;1866;2611;228
468667;2;18;2;924;937;4035;-1261;1192;2662;187
468677;2;18;2;924;1005;3903;-1172;670;2651;145
468687;2;18;2;924;1000;3867;-1011;416;2630;2
468697;2;18;2;924;976;3864;-872;375;2700;-111
468707;2;18;2;924;989;3856;-755;598;2894;-343
468717;2;18;2;924;1016;3867;-712;1068;3031;-524
468727;2;18;2;924;1105;3947;-843;1602;3166;-705
468737;2;18;2;924;1190;4016;-918;1837;3285;-792
468747;2;18;2;924;1197;4099;-847;1781;3335;-937
468757;2;18;2;924;1121;4173;-669;1715;3293;-1071
468767;2;18;2;924;1030;4237;-557;1778;3255;-1141
468777;2;18;2;924;991;4213;-580;1829;3327;-1231
468787;2;18;2;924;990;4239;-569;1848;3424;-1326
468797;2;18;2;924;920;4254;-572;1921;3481;-1342
468807;2;18;2;924;891;4221;-607;2093;3475;-1254
468817;2;18;2;924;892;4103;-775;2109;3449;-1186
468827;2;18;2;924;864;3988;-971;1824;3415;-1131
468837;2;18;2;924;840;3878;-1153;1335;3414;-1018
468847;2;18;2;924;840;3744;-1227;680;3411;-888
468857;2;18;2;924;887;3645;-1200;77;3388;-781
468867;2;18;2;924;908;3571;-1023;-311;3381;-736
468877;2;18;2;924;896;3530;-831;-347;3539;-734
468887;2;18;2;924;895;3514;-608;-34;3740;-812
468897;2;18;2;924;973;3569;-482;437;3798;-911
468907;2;18;2;924;1018;3611;-412;883;3751;-939
468917;2;18;2;924;1055;3666;-419;1387;3629;-954
468927;2;18;2;925;1022;3679;-510;1975;3541;-950
468937;2;18;2;925;1056;3710;-684;2474;3499;-978
468947;2;18;2;925;1113;3700;-878;2705;3555;-1023
468957;2;18;2;925;1126;3734;-914;2717;3575;-1041
468967;2;18;2;925;1113;3833;-827;2693;3496;-1029
468977;2;18;2;925;1068;3915;-816;2789;3374;-937
468987;2;18;2;925;1073;3922;-899;2896;3325;-850
468997;2;18;2;925;1057;3964;-905;2901;3397;-860
469007;2;18;2;925;1035;4005;-928;2704;3416;-717
469017;2;18;2;925;1040;4021;-967;2379;3282;-601
469027;2;18;2;925;1035;4012;-1009;1822;3165;-478
469037;2;18;2;925;1031;3917;-1277;986;3176;-464
469047;2;18;2;925;1113;3979;-1259;226;3406;-454
469057;2;18;2;925;1212;3983;-1134;-45;3739;-529
469067;2;18;2;925;1269;4075;-1010;178;4008;-547
469077;2;18;2;925;1290;3960;-893;362;4312;-561
469087;2;18;2;925;1314;3980;-797;363;4497;-510
469097;2;18;2;925;1342;3992;-585;470;4661;-493
469107;2;18;2;925;1278;4060;-499;1012;4743;-411
469117;2;18;2;925;1153;4181;-468;1781;4817;-329
469127;2;18;2;925;984;4137;-481;2412;4929;-217
469137;2;18;2;925;876;4079;-582;2837;4878;-14
469147;2;18;2;925;898;3983;-909;2887;4632;206
469157;2;18;2;925;1068;3912;-1363;2255;4495;300
469167;2;18;2;925;1266;3859;-1630;1067;4744;35
469177;2;18;2;925;1378;3833;-1538;-195;5186;-369
469187;2;18;2;925;1328;3987;-1236;-1187;5565;-745
469197;2;18;2;925;1242;4037;-909;-1948;5742;-898
469207;2;18;2;925;1087;4227;-579;-2312;5775;-831
469217;2;18;2;925;1028;4219;-265;-1896;5811;-662
469227;2;18;2;925;988;4118;-177;-1217;5895;-475
469237;2;18;2;925;1158;4131;-225;-850;5911;-276
469247;2;18;2;925;1541;4173;-263;-404;5956;-228
469257;2;18;2;925;1819;4141;-450;449;6167;-509
469267;2;18;2;925;1905;4241;-850;889;6476;-1093
469277;2;18;2;925;1679;4556;-1030;727;6650;-1505
469287;2;18;2;925;1212;4670;-1098;928;6277;-1321
469297;2;18;2;925;633;4629;-1451;1306;5681;-657
469307;2;18;2;925;367;4383;-1948;866;5216;237
469317;2;18;2;925;534;4116;-2421;-571;5182;826
469327;2;18;2;925;784;3904;-2392;-2287;5506;1051
469337;2;18;2;925;1144;3705;-2015;-3787;5627;1157
469347;2;18;2;925;1532;3609;-1458;-4785;5516;1076
469357;2;18;2;925;1741;3521;-805;-5102;5264;890
469367;2;18;2;925;1838;3505;-44;-4470;5058;624
469377;2;18;2;925;1740;3580;570;-2488;4927;323
469387;2;18;2;925;1603;3574;692;-179;4663;120
469397;2;18;2;925;1572;3587;475;1467;4307;-17
469407;2;18;2;925;1570;3536;144;2531;4025;-5
469417;2;18;2;925;1651;3515;-297;3190;3793;-68
469427;2;18;2;926;1690;3573;-746;3567;3742;-193
469437;2;18;2;926;1700;3626;-1126;3772;3927;-424
469447;2;18;2;926;1580;3724;-1311;3574;4165;-652
469457;2;18;2;926;1416;3848;-1212;2877;4225;-666
469467;2;18;2;926;1284;3924;-917;1956;4095;-524
469477;2;18;2;926;1243;4008;-572;1364;3920;-266
469487;2;18;2;926;1359;4009;-299;1263;3728;9
469497;2;18;2;926;1552;3923;-196;1259;3532;161
469507;2;18;2;926;1725;3846;-238;1163;3416;164
469517;2;18;2;926;1851;3776;-254;1113;3371;41
469527;2;18;2;926;1911;3788;-296;1154;3437;-170
469537;2;18;2;926;1854;3802;-270;1309;3516;-377
469547;2;18;2;926;1794;3872;-284;1503;3469;-500
469557;2;18;2;926;1638;3916;-309;1687;3253;-431
469567;2;18;2;926;1555;3990;-411;1664;2904;-270
469577;2;18;2;926;1505;3972;-498;1528;2521;-15
469587;2;18;2;926;1555;3923;-664;1168;2232;168
469597;2;18;2;926;1618;3837;-790;668;2073;298
469607;2;18;2;926;1732;3739;-787;195;1884;361
469617;2;18;2;926;1816;3656;-701;-147;1671;418
469627;2;18;2;926;1855;3592;-637;-301;1348;494
469637;2;18;2;926;1891;3428;-537;-217;1126;540
469647;2;18;2;926;1955;3339;-534;-217;924;463
469657;2;18;2;926;2009;3317;-494;-167;845;344
469667;2;18;2;926;2009;3349;-454;-16;940;140
469677;2;18;2;926;1999;3407;-334;459;1140;-50
469687;2;18;2;926;1948;3515;-244;1121;1156;-156
469697;2;18;2;926;1929;3582;-285;1680;902;-122
469707;2;18;2;926;1842;3642;-361;1967;523;10
469717;2;18;2;926;1860;3643;-424;2093;147;147
469727;2;18;2;926;1799;3704;-492;2198;-231;267
469737;2;18;2;926;1825;3689;-600;2322;-621;386
469747;2;18;2;926;1862;3716;-794;2290;-960;484
469757;2;18;2;926;1956;3650;-983;2083;-1232;522
469767;2;18;2;926;1960;3590;-1356;1656;-1098;399
469777;2;18;2;926;1971;3492;-1435;1040;-612;201
469787;2;18;2;926;2011;3485;-1360;347;-151;-83
469797;2;18;2;926;2035;3536;-1187;-307;121;-289
469807;2;18;2;926;2074;3601;-995;-800;286;-507
469817;2;18;2;926;2094;3687;-872;-973;359;-693
469827;2;18;2;926;2089;3691;-781;-968;433;-864
469837;2;18;2;926;2023;3712;-662;-893;318;-953
469847;2;18;2;926;1924;3695;-651;-859;63;-935
469857;2;18;2;926;1810;3727;-648;-1007;-208;-813
469867;2;18;2;926;1794;3655;-669;-1139;-435;-683
469877;2;18;2;926;1826;3602;-732;-1153;-588;-603
469887;2;18;2;926;1898;3526;-860;-1111;-621;-554
469897;2;18;2;926;1965;3433;-1008;-1186;-517;-675
469907;2;18;2;926;2024;3367;-1065;-1438;-330;-904
469917;2;18;2;926;2065;3360;-1009;-1758;-209;-1150
469927;2;18;2;927;2054;3374;-894;-1902;-109;-1387
469937;2;18;2;927;2025;3411;-744;-1810;-57;-1618
469947;2;18;2;927;1985;3509;-572;-1606;-163;-1783
469957;2;18;2;927;1980;3629;-492;-1221;-519;-1777
469967;2;18;2;927;1887;3670;-452;-801;-1118;-1680
469977;2;18;2;927;1816;3667;-630;-463;-1775;-1496
469987;2;18;2;927;1694;3633;-922;-169;-2147;-1374
469997;2;18;2;927;1653;3576;-1139;47;-2198;-1336
470007;2;18;2;927;1619;3534;-1294;44;-2138;-1364
470017;2;18;2;927;1541;3538;-1456;-271;-2125;-1340
470027;2;18;2;927;1439;3496;-1495;-618;-2056;-1302
470037;2;18;2;927;1345;3484;-1409;-692;-1970;-1297
470047;2;18;2;927;1312;3542;-1290;-548;-1896;-1342
470057;2;18;2;927;1260;3686;-1058;-312;-2087;-1395
470067;2;18;2;927;1180;3841;-860;171;-2599;-1353
470077;2;18;2;927;1023;4004;-801;818;-3473;-1147
470087;2;18;2;927;951;4034;-977;1345;-4463;-812
470097;2;18;2;927;834;4152;-1254;1500;-5176;-544
470107;2;18;2;927;930;4156;-1479;1557;-5423;-389
470117;2;18;2;927;951;4248;-1637;1312;-5217;-634
470127;2;18;2;927;998;4514;-1473;853;-4914;-951
470137;2;18;2;927;985;4703;-1278;344;-4754;-1167
470147;2;18;2;927;934;4763;-1104;61;-4577;-1368
470157;2;18;2;927;895;4868;-842;284;-4460;-1529
470167;2;18;2;927;806;4927;-709;1038;-4470;-1440
470177;2;18;2;927;636;4786;-815;1394;-4738;-1019
470187;2;18;2;927;485;4441;-1042;485;-5281;-391
470197;2;18;2;927;421;4332;-1144;-1008;-5655;184
470207;2;18;2;927;445;4145;-1113;-2059;-5470;520
470217;2;18;2;927;535;3986;-1055;-2391;-4690;452
470227;2;18;2;927;630;3827;-882;-2188;-3744;103
470237;2;18;2;927;702;3873;-597;-1699;-3045;-300
470247;2;18;2;927;706;3884;-350;-954;-2473;-670
470257;2;18;2;927;670;3974;-84;105;-2157;-1003
470267;2;18;2;927;591;4069;-56;805;-2220;-1176
470277;2;18;2;927;482;4156;-91;1162;-2478;-1280
470287;2;18;2;927;351;4216;-215;1368;-2892;-1193
470297;2;18;2;927;262;4253;-343;1523;-3204;-1018
470307;2;18;2;927;198;4242;-398;1595;-3511;-815
470317;2;18;2;927;132;4283;-626;1284;-3897;-561
470327;2;18;2;927;118;4169;-834;685;-4021;-384
470337;2;18;2;927;83;4043;-970;11;-3758;-430
470347;2;18;2;927;139;4023;-989;-564;-3332;-497
470357;2;18;2;927;189;4022;-867;-1094;-2868;-572
470367;2;18;2;927;315;4125;-590;-1439;-2727;-575
470377;2;18;2;927;354;4204;-322;-1702;-2912;-388
470387;2;18;2;927;430;4162;-223;-1736;-3215;-228
470397;2;18;2;927;460;4145;-219;-1533;-3562;-114
470407;2;18;2;927;460;4051;-387;-1465;-3911;85
470417;2;18;2;927;425;3968;-547;-1539;-4300;299
470427;2;18;2;928;392;3906;-759;-1671;-4527;506
470437;2;18;2;928;333;3881;-860;-1833;-4631;674
470447;2;18;2;928;359;3924;-917;-2076;-4869;899
470457;2;18;2;928;399;3966;-918;-2235;-5271;1164
470467;2;18;2;928;472;3981;-967;-2207;-5604;1325
470477;2;18;2;928;557;3983;-974;-2099;-5595;1295
470487;2;18;2;928;531;4084;-749;-2074;-5383;1259
470497;2;18;2;928;584;4116;-540;-2062;-5237;1253
470507;2;18;2;928;542;4129;-501;-2083;-5182;1325
470517;2;18;2;928;561;4062;-666;-2080;-5156;1396
470527;2;18;2;928;564;4006;-808;-1947;-4943;1408
470537;2;18;2;928;566;3983;-820;-1778;-4622;1395
470547;2;18;2;928;572;4042;-698;-1730;-4588;1521
470557;2;18;2;928;591;4053;-679;-1790;-4806;1698
470567;2;18;2;928;610;4006;-787;-1909;-5056;1866
470577;2;18;2;928;646;3983;-839;-1967;-5153;1884
470587;2;18;2;928;688;4010;-855;-1929;-5084;1802
470597;2;18;2;928;719;3975;-923;-1836;-5063;1695
470607;2;18;2;928;755;3983;-993;-1824;-5147;1640
470617;2;18;2;928;693;4030;-934;-1930;-5257;1665
470627;2;18;2;928;681;4024;-767;-2017;-5416;1692
470637;2;18;2;928;666;4099;-688;-1977;-5466;1668
470647;2;18;2;928;658;4102;-643;-1817;-5305;1642
470657;2;18;2;928;640;4058;-658;-1639;-5006;1476
470667;2;18;2;928;674;4038;-646;-1474;-4840;1404
470677;2;18;2;928;634;4014;-659;-1344;-4886;1419
470687;2;18;2;928;645;3944;-764;-1256;-4931;1425
470697;2;18;2;928;672;3923;-860;-1111;-4842;1365
470707;2;18;2;928;687;3969;-854;-983;-4790;1328
470717;2;18;2;928;690;3987;-855;-983;-4779;1314
470727;2;18;2;928;692;3981;-802;-1008;-4765;1249
470737;2;18;2;928;688;4032;-738;-978;-4882;1180
470747;2;18;2;928;665;4060;-716;-936;-5052;1135
470757;2;18;2;928;703;4051;-824;-932;-5264;1152
470767;2;18;2;928;658;3967;-844;-1073;-5163;1060
470777;2;18;2;928;561;4017;-811;-1341;-5092;948
470787;2;18;2;928;519;3953;-733;-1585;-5094;935
470797;2;18;2;928;526;3899;-672;-1662;-5130;956
470807;2;18;2;928;555;3918;-557;-1577;-5146;1014
470817;2;18;2;928;683;3947;-439;-1305;-5233;1073
470827;2;18;2;928;817;3964;-416;-890;-5216;1024
470837;2;18;2;928;889;4034;-414;-394;-4996;824
470847;2;18;2;928;977;4072;-461;73;-4778;602
470857;2;18;2;928;994;4161;-583;326;-4566;372
470867;2;18;2;928;1025;4264;-677;314;-4435;162
470877;2;18;2;928;996;4286;-756;257;-4393;19
470887;2;18;2;928;849;4259;-990;-356;-4426;-148
470897;2;18;2;928;635;4438;-1137;-1492;-4514;-93
470907;2;18;2;928;572;4536;-1100;-2261;-4542;127
470917;2;18;2;928;591;4478;-1042;-2174;-4481;412
470927;2;18;2;929;621;4413;-1047;-2305;-4381;667
470937;2;18;2;929;753;4161;-1006;-2982;-4236;955
470947;2;18;2;929;1013;4008;-790;-3922;-4114;1041
470957;2;18;2;929;1149;3883;-570;-4673;-3852;886
470967;2;18;2;929;1217;3762;-335;-5112;-3510;600
470977;2;18;2;929;1176;3755;21;-5172;-3243;272
470987;2;18;2;929;1059;3768;471;-4793;-3237;130
470997;2;18;2;929;967;3868;981;-3585;-3456;104
471007;2;18;2;929;953;3839;1042;-1943;-3629;138
471017;2;18;2;929;1066;3713;657;-695;-3602;113
471027;2;18;2;929;1190;3646;372;-535;-3394;-86
471037;2;18;2;929;1289;3786;382;-689;-3228;-346
471047;2;18;2;929;1269;3954;416;-726;-3253;-532
471057;2;18;2;929;1204;4057;357;-793;-3430;-618
471067;2;18;2;929;1159;4126;318;-776;-3608;-720
471077;2;18;2;929;1132;4272;291;-661;-3650;-808
471087;2;18;2;929;1066;4391;251;-437;-3613;-840
471097;2;18;2;929;1084;4444;262;-311;-3759;-768
471107;2;18;2;929;1091;4536;207;-435;-4214;-497
471117;2;18;2;929;1101;4487;44;-803;-4673;-173
471127;2;18;2;929;1123;4408;-113;-1296;-4900;38
471137;2;18;2;929;1150;4408;-191;-1766;-4888;112
471147;2;18;2;929;1132;4358;-118;-2091;-4969;289
471157;2;18;2;929;1182;4242;-14;-2339;-5124;372
471167;2;18;2;929;1272;4192;9;-2401;-5345;461
471177;2;18;2;929;1371;4044;62;-2401;-5576;585
471187;2;18;2;929;1456;4027;101;-2409;-5938;602
471197;2;18;2;929;1365;4073;225;-2402;-6185;630
471207;2;18;2;929;1333;3967;231;-2234;-6320;624
471217;2;18;2;929;1270;3938;321;-1993;-6237;566
471227;2;18;2;929;1289;3890;239;-1654;-6182;604
471237;2;18;2;929;1331;3804;182;-1425;-5773;615
471247;2;18;2;929;1383;3801;254;-1199;-5431;629
471257;2;18;2;929;1470;3705;322;-1041;-5282;725
471267;2;18;2;929;1481;3687;328;-864;-5243;763
471277;2;18;2;929;1380;3706;299;-747;-5081;804
471287;2;18;2;929;1246;3734;379;-608;-4856;849
471297;2;18;2;929;1166;3727;356;-370;-4616;917
471307;2;18;2;929;1131;3721;260;-166;-4363;995
471317;2;18;2;929;1070;3744;267;6;-4120;1106
471327;2;18;2;929;1049;3758;319;48;-4050;1221
471337;2;18;2;929;1022;3759;370;43;-4054;1275
471347;2;18;2;929;991;3772;395;14;-4073;1320
471357;2;18;2;929;1002;3777;388;52;-4023;1297
471367;2;18;2;929;1048;3761;324;98;-4003;1234
471377;2;18;2;929;1053;3767;177;150;-3917;1113
471387;2;18;2;929;1016;3765;57;95;-3745;926
471397;2;18;2;929;973;3784;-2;-82;-3622;688
471407;2;18;2;929;887;3835;-20;-313;-3446;538
471417;2;18;2;929;772;3848;86;-528;-3473;423
471427;2;18;2;930;754;3832;138;-700;-3748;438
471437;2;18;2;930;770;3792;92;-982;-4173;534
471447;2;18;2;930;836;3743;-13;-1411;-4586;600
471457;2;18;2;930;918;3722;71;-1831;-4870;555
471467;2;18;2;930;979;3766;258;-2083;-5112;483
471477;2;18;2;930;1023;3824;457;-2231;-5344;365
471487;2;18;2;930;1084;3848;559;-2340;-5479;172
471497;2;18;2;930;1111;3904;594;-2345;-5447;-31
471507;2;18;2;930;1124;3936;629;-2223;-5305;-193
471517;2;18;2;930;1124;4023;525;-1897;-5070;-385
471527;2;18;2;930;1053;4195;317;-1720;-4674;-640
471537;2;18;2;930;1071;4553;351;-1110;-3976;-951
471547;2;18;2;930;1325;4832;643;516;-2996;-1413
471557;2;18;2;930;1506;5047;792;2378;-2267;-2180
471567;2;18;2;930;1651;5028;522;4063;-2597;-2694
471577;2;18;2;930;1480;5334;-154;5972;-4021;-2870
471587;2;18;2;930;879;5279;-1551;6595;-6200;-1849
471597;2;18;2;930;295;4709;-2842;3818;-8120;-252
471607;2;18;2;930;-128;4295;-3433;-921;-8905;1003
471617;2;18;2;930;-184;3824;-3435;-5187;-8166;1759
471627;2;18;2;930;42;3310;-2977;-8384;-6292;1991
471637;2;18;2;930;436;3035;-1919;-11298;-4466;2201
471647;2;18;2;930;1041;3109;11;-13089;-3859;2504
471657;2;18;2;930;1524;3410;3832;-9513;-4487;2454
471667;2;18;2;930;1457;3748;2577;-805;-5509;2517
471677;2;18;2;930;1949;3105;323;2120;-5786;2500
471687;2;18;2;930;2129;2986;-626;2122;-5275;1811
471697;2;18;2;930;2147;3111;-932;2471;-4246;759
471707;2;18;2;930;1831;3481;-978;3088;-3165;-129
471717;2;18;2;930;1255;3650;-831;3465;-2400;-515
471727;2;18;2;930;802;3793;-839;3389;-2112;-757
471737;2;18;2;930;237;4208;-1010;2800;-1870;-455
471747;2;18;2;930;-34;4486;-1423;1759;-1563;187
471757;2;18;2;930;94;4485;-1715;119;-847;757
471767;2;18;2;930;763;4578;-1833;-1438;123;961
471777;2;18;2;930;1548;4429;-1776;-1927;1416;719
471787;2;18;2;930;2227;4341;-1238;-1623;2759;197
471797;2;18;2;930;2589;4389;-430;-1026;3589;-724
471807;2;18;2;930;2305;4292;263;-137;3749;-1055
471817;2;18;2;930;1765;4059;313;932;3718;-1248
471827;2;18;2;930;1254;3925;-40;1441;3919;-1250
471837;2;18;2;930;797;3840;-290;1754;4396;-1025
471847;2;18;2;930;539;3895;-599;2151;5025;-750
471857;2;18;2;930;534;3864;-927;2517;5921;-587
471867;2;18;2;930;719;3765;-1227;2720;7162;-754
471877;2;18;2;930;829;3838;-1160;2681;8437;-1157
471887;2;18;2;930;907;3944;-801;2654;9175;-1426
471897;2;18;2;930;949;3985;-308;2825;9319;-1529
471907;2;18;2;930;954;3943;-128;3027;9103;-1511
471917;2;18;2;930;980;3879;-180;3243;8969;-1538
471927;2;18;2;931;1072;3846;-321;3460;9011;-1577
471937;2;18;2;931;1075;3941;-369;3630;9196;-1609
471947;2;18;2;931;1147;3897;-448;3836;9279;-1656
471957;2;18;2;931;1019;4098;-643;3926;9337;-1744
471967;2;18;2;931;965;4139;-653;4055;9329;-1749
471977;2;18;2;931;843;4218;-756;4057;9158;-1715
471987;2;18;2;931;708;4241;-861;4011;8766;-1428
471997;2;18;2;931;652;4128;-1341;3443;8421;-1315
472007;2;18;2;931;530;4221;-1540;2911;8588;-1033
472017;2;18;2;931;632;4056;-1609;2472;8951;-884
472027;2;18;2;931;791;4030;-1656;1772;9097;-819
472037;2;18;2;931;868;4046;-1602;777;9186;-701
472047;2;18;2;931;910;3991;-1377;-145;9298;-599
472057;2;18;2;931;910;3944;-1087;-348;9505;-524
472067;2;18;2;931;822;3943;-877;144;9695;-462
472077;2;18;2;931;836;3934;-890;862;9911;-421
472087;2;18;2;931;809;3865;-950;1547;10119;-385
472097;2;18;2;931;717;3886;-1060;2020;10237;-300
472107;2;18;2;931;568;3819;-1162;2341;10279;-117
472117;2;18;2;931;473;3803;-1268;2633;10309;40
472127;2;18;2;931;396;3845;-1466;2890;10397;212
472137;2;18;2;931;434;3782;-1700;2905;10727;293
472147;2;18;2;931;504;3798;-1680;2650;11064;229
472157;2;18;2;931;468;3769;-1434;2243;11342;76
472167;2;18;2;931;448;3712;-1193;2184;11477;-120
472177;2;18;2;931;434;3598;-1103;2636;11676;-343
472187;2;18;2;931;369;3413;-1216;3287;11951;-640
472197;2;18;2;931;244;3335;-1328;3882;12247;-933
472207;2;18;2;931;310;3271;-1272;4524;12474;-1169
472217;2;18;2;931;285;3299;-1374;5322;12539;-1267
472227;2;18;2;931;359;3408;-1329;6121;12512;-1366
472237;2;18;2;931;484;3532;-1384;6602;12074;-1337
472247;2;18;2;931;565;3663;-1429;6721;11875;-1607
472257;2;18;2;931;454;3891;-1081;6831;11861;-2082
472267;2;18;2;931;422;4209;-1016;7102;11615;-2560
472277;2;18;2;931;397;4348;-825;8093;11745;-2725
472287;2;18;2;931;411;4547;-972;9399;11174;-2787
472297;2;18;2;931;432;4502;-1606;9619;10199;-2666
472307;2;18;2;931;482;4252;-2293;8840;9212;-2543
472317;2;18;2;931;406;4104;-2733;7508;8298;-2419
472327;2;18;2;931;180;4026;-2787;5835;7688;-2203
472337;2;18;2;931;73;3833;-2425;4238;7156;-1943
472347;2;18;2;931;204;3535;-1882;3110;6630;-1620
472357;2;18;2;931;563;3271;-1014;2648;5824;-1339
472367;2;18;2;931;899;3133;-273;3059;4746;-1055
472377;2;18;2;931;1218;2915;79;3587;3624;-818
472387;2;18;2;931;1463;2405;-1;3910;2900;-763
472397;2;18;2;931;1527;2132;-521;3800;2875;-1237
472407;2;18;2;931;1339;2006;-833;3217;3336;-1497
472417;2;18;2;931;1084;1828;-730;2666;3775;-1681
472427;2;18;2;932;637;1977;-463;2565;3813;-1653
472437;2;18;2;932;215;2172;-475;2710;3667;-1405
472447;2;18;2;932;132;2191;-638;2882;3621;-1113
472457;2;18;2;932;270;2191;-903;2904;3567;-825
472467;2;18;2;932;288;2158;-835;2602;3275;-649
472477;2;18;2;932;428;2118;-633;2147;2437;-527
472487;2;18;2;932;493;2078;-520;1633;1578;-450
472497;2;18;2;932;478;1793;-574;956;605;-228
472507;2;18;2;932;428;1465;-688;344;-21;-215
472517;2;18;2;932;385;1241;-528;412;-409;-312
472527;2;18;2;932;464;1172;-364;920;-887;-306
472537;2;18;2;932;559;1290;-298;909;-1337;-218
472547;2;18;2;932;708;1418;-275;755;-1696;-265
472557;2;18;2;932;847;1564;-300;767;-1861;-292
472567;2;18;2;932;983;1875;-508;734;-1834;-244
472577;2;18;2;932;1003;2218;-592;355;-1870;4
472587;2;18;2;932;1122;2509;-870;-415;-2070;165
472597;2;18;2;932;1051;2762;-1284;-1465;-2007;-108
472607;2;18;2;932;1030;2583;-1478;-2258;-1968;-393
472617;2;18;2;932;1294;2251;-1438;-2537;-2029;-519
472627;2;18;2;932;1613;1941;-1294;-2569;-1889;-737
472637;2;18;2;932;1685;1851;-887;-2205;-1350;-1156
472647;2;18;2;932;1477;1989;-617;-1326;-919;-1163
472657;2;18;2;932;1130;2208;-854;-910;-580;-541
472667;2;18;2;932;820;2299;-1301;-1194;-423;128
472677;2;18;2;932;825;2546;-2019;-1301;-404;690
472687;2;18;2;932;868;3041;-2757;-1260;-299;1245
472697;2;18;2;932;989;3728;-3387;-1896;65;1613
472707;2;18;2;932;1357;4239;-3479;-3047;539;1826
472717;2;18;2;932;1938;4705;-2887;-4336;1169;1455
472727;2;18;2;932;1861;5076;-1944;-4712;1782;862
472737;2;18;2;932;1551;4962;-959;-4097;1474;450
472747;2;18;2;932;907;4735;-584;-2125;813;339
472757;2;18;2;932;538;3966;-694;82;212;924
472767;2;18;2;932;162;3731;-1331;550;-264;2049
472777;2;18;2;932;564;3402;-2198;459;143;2671
472787;2;18;2;932;577;3681;-2908;560;704;3518
472797;2;18;2;932;281;3894;-3227;1039;1271;4622
472807;2;18;2;932;1428;3665;-3299;640;1973;4902
472817;2;18;2;932;2189;4190;-2924;-1308;2869;4818
472827;2;18;2;932;2675;3972;-1939;-2624;4417;4265
472837;2;18;2;932;2829;4224;-822;-2583;5948;3025
472847;2;18;2;932;1576;5316;-1185;-2744;6198;2083
472857;2;18;2;932;222;5761;-1716;-3282;5305;2228
472867;2;18;2;932;-99;6741;-2463;-3980;3560;2901
472877;2;18;2;932;589;7706;-3083;-4066;1793;3605
472887;2;18;2;932;1237;7432;-3380;-1899;395;4154
472897;2;18;2;932;1795;6392;-4575;675;-182;4251
472907;2;18;2;932;2017;5644;-5408;200;310;3709
472917;2;18;2;932;2186;4786;-5218;-2352;1612;3206
472927;2;18;2;933;2526;4067;-4192;-5474;3649;2403
472937;2;18;2;933;2842;3770;-2805;-8089;5750;1272
472947;2;18;2;933;2786;3651;-1214;-9405;7485;-153
472957;2;18;2;933;1657;4689;532;-9480;7882;-1556
472967;2;18;2;933;195;5960;1519;-7539;5510;-857
472977;2;18;2;933;-554;6802;423;-3398;1865;1317
472987;2;18;2;933;-187;6880;-1790;381;-235;2853
472997;2;18;2;933;2122;6051;-4038;376;459;1953
473007;2;18;2;933;3638;5387;-4340;-2429;2544;98
473017;2;18;2;933;4062;4498;-3746;-5146;3136;-1390
473027;2;18;2;933;4361;3947;-3533;-5709;3142;-2381
473037;2;18;2;933;4026;4177;-2681;-5388;3444;-2984
473047;2;18;2;933;3794;4312;-1679;-5936;3600;-2876
473057;2;18;2;933;3906;4196;-548;-6894;5060;-3351
473067;2;18;2;933;3557;3997;1073;-7576;6316;-4004
473077;2;18;2;933;2397;3807;2391;-6853;5321;-3399
473087;2;18;2;933;1420;3321;1749;-4101;2266;-1180
473097;2;18;2;933;1026;2322;-357;-842;-494;635
473107;2;18;2;933;1108;1452;-2896;485;-1237;1427
473117;2;18;2;933;1392;1238;-4381;-1667;-99;1318
473127;2;18;2;933;1701;1422;-4224;-6395;1537;765
473137;2;18;2;933;2012;1925;-2503;-11332;3274;-140
473147;2;18;2;933;1451;3658;107;-14464;4094;-534
473157;2;18;2;933;960;5076;2168;-15359;2685;186
473167;2;18;2;933;619;5478;1790;-12785;-347;1308
473177;2;18;2;933;1264;4106;-487;-10474;-2142;1833
473187;2;18;2;933;3147;1002;-314;-10440;-172;959
473197;2;18;2;933;4956;570;2771;-10324;4383;-1095
473207;2;18;2;933;5579;2254;5216;-11262;8401;-2529
473217;2;18;2;933;5406;3208;5666;-13272;10622;-1191
473227;2;18;2;933;5214;2655;5288;-12726;14802;-864
473237;2;18;2;933;4362;3196;5408;-11227;19007;-1545
473247;2;18;2;933;2654;3246;6437;-10812;21442;-2251
473257;2;18;2;933;1263;2037;6895;-10931;19489;-1412
473267;2;18;2;933;892;608;5936;-11380;16496;-623
473277;2;18;2;933;7;162;4563;-12162;12822;374
473287;2;18;2;933;-547;-264;3094;-12739;10188;917
473297;2;18;2;933;-1323;-647;2439;-13394;9447;1001
473307;2;18;2;933;-1927;-816;3686;-14080;10853;101
473317;2;18;2;933;-1263;-1126;5600;-13360;11949;-1365
473327;2;18;2;933;-847;-923;5586;-12760;10381;-2593
473337;2;18;2;933;-985;-803;4868;-13780;7683;-2538
473347;2;18;2;933;-1272;59;4487;-15995;5897;-2987
473357;2;18;2;933;-1575;2187;5125;-17394;4751;-3119
473367;2;18;2;933;-777;2972;5522;-17090;3273;-2123
473377;2;18;2;933;419;2555;5516;-16176;2653;-1769
473387;2;18;2;933;1167;1882;5531;-15330;2890;-1818
473397;2;18;2;933;1664;1222;6091;-15562;4122;-2256
473407;2;18;2;933;1535;946;6870;-15889;5200;-2750
473417;2;18;2;933;1085;579;6614;-15467;5465;-2741
473427;2;18;2;934;609;80;6234;-14522;5362;-2587
473437;2;18;2;934;160;-180;7255;-13264;5337;-2757
473447;2;18;2;934;-835;-426;8930;-10833;3875;-2079
473457;2;18;2;934;-1545;-669;10319;-6282;886;-758
473467;2;18;2;934;-2106;-1728;9429;-2019;-2206;1543
473477;2;18;2;934;-2363;-2770;5458;-3279;-3932;3808
473487;2;18;2;934;-1756;-3657;3039;-6129;-4390;5001
473497;2;18;2;934;-1103;-3290;2456;-5955;-4094;3996
473507;2;18;2;934;-949;-1754;2052;-3291;-3394;2339
473517;2;18;2;934;-643;-767;2116;-2039;-3120;771
473527;2;18;2;934;-560;416;2098;-2009;-3440;-486
473537;2;18;2;934;-494;1578;2167;-2672;-3739;-627
473547;2;18;2;934;16;2466;2533;-3126;-4168;-449
473557;2;18;2;934;577;2586;2551;-3167;-3727;61
473567;2;18;2;934;1783;2183;3160;-3162;-2453;-211
473577;2;18;2;934;2223;1946;4499;-2006;-1205;-639
473587;2;18;2;934;2183;1505;5488;91;-511;-1394
473597;2;18;2;934;1842;867;5989;1132;-427;-2133
473607;2;18;2;934;1273;-268;6365;1287;-350;-2111
473617;2;18;2;934;629;-1189;5873;715;69;-1859
473627;2;18;2;934;317;-1784;4612;-1256;1050;-1718
473637;2;18;2;934;666;-2084;3487;-2467;2530;-1896
473647;2;18;2;934;663;-2139;2873;-1667;4297;-1882
473657;2;18;2;934;372;-1160;2673;298;4696;-2530
473667;2;18;2;934;-19;-214;2773;2112;4384;-2581
473677;2;18;2;934;-125;517;3032;3701;3365;-2754
473687;2;18;2;934;-457;1329;3719;4233;1763;-2118
473697;2;18;2;934;-287;1688;4755;3852;-346;-1111
473707;2;18;2;934;-15;1717;5336;2915;-2098;-204
473717;2;18;2;934;162;1516;5382;857;-2906;596
473727;2;18;2;934;484;979;5396;-864;-2997;1054
473737;2;18;2;934;899;481;5106;-1137;-2301;1074
473747;2;18;2;934;1139;-69;4473;-1322;-1179;869
473757;2;18;2;934;1077;-377;4063;-1638;-83;462
473767;2;18;2;934;979;-458;3847;-1538;512;250
473777;2;18;2;934;898;-555;3586;-823;689;175
473787;2;18;2;934;800;-500;3362;502;1201;-176
473797;2;18;2;934;641;-243;3382;1640;2218;-787
473807;2;18;2;934;198;81;3547;1870;2651;-997
473817;2;18;2;934;-157;236;3830;1636;2339;-631
473827;2;18;2;934;-266;264;3955;1614;1761;-209
473837;2;18;2;934;-345;296;4039;1890;1261;143
473847;2;18;2;934;-279;215;4144;2454;877;433
473857;2;18;2;934;-201;297;4312;2955;705;551
473867;2;18;2;934;-102;411;4425;2871;655;520
473877;2;18;2;934;-21;460;4388;2382;757;401
473887;2;18;2;934;194;538;4455;1971;1078;271
473897;2;18;2;934;252;742;4682;1910;1263;140
473907;2;18;2;934;67;938;4688;2198;1031;306
473917;2;18;2;934;-85;897;4509;2900;330;983
473927;2;18;2;935;-132;522;3928;3420;-212;1440
473937;2;18;2;935;-292;464;3377;3178;-255;1547
473947;2;18;2;935;-350;475;3139;2671;-546;1908
473957;2;18;2;935;-193;344;3177;2541;-1206;2375
473967;2;18;2;935;69;300;3300;2487;-1456;2531
473977;2;18;2;935;299;654;4228;2051;-1208;2366
473987;2;18;2;935;656;971;5059;1807;-583;2054
473997;2;18;2;935;969;1339;5659;1645;256;1130
474007;2;18;2;935;1151;1484;5826;1854;1293;217
474017;2;18;2;935;1351;1250;5275;1864;2579;-795
474027;2;18;2;935;1220;857;4245;1659;2521;-1585
474037;2;18;2;935;607;493;3012;2154;1217;-1751
474047;2;18;2;935;-348;214;2195;2598;-74;-1220
474057;2;18;2;935;-1116;230;2153;2093;-449;-285
474067;2;18;2;935;-1030;860;3260;805;549;148
474077;2;18;2;935;-664;1880;5316;-231;1831;131
474087;2;18;2;935;-77;2597;6727;236;2217;243
474097;2;18;2;935;482;2483;5637;1590;1416;506
474107;2;18;2;935;926;1711;3527;1983;598;703
474117;2;18;2;935;1123;965;2135;977;20;262
474127;2;18;2;935;793;772;1679;-1104;-141;-485
474137;2;18;2;935;54;1110;2794;-2823;-270;-688
474147;2;18;2;935;-300;1373;4411;-2475;-848;-161
474157;2;18;2;935;-273;1387;4886;-631;-1326;392
474167;2;18;2;935;-115;1289;4507;399;-1116;628
474177;2;18;2;935;213;1303;4288;431;-591;727
474187;2;18;2;935;535;1311;4184;469;-191;850
474197;2;18;2;935;716;1275;3735;519;74;889
474207;2;18;2;935;770;1362;3387;428;255;728
474217;2;18;2;935;886;1408;3299;430;254;498
474227;2;18;2;935;915;1487;3310;380;48;250
474237;2;18;2;935;868;1580;3654;411;100;-82
474247;2;18;2;935;774;1777;4137;568;330;-508
474257;2;18;2;935;644;1967;4505;749;783;-763
474267;2;18;2;935;489;2098;4551;951;839;-678
474277;2;18;2;935;284;2252;4335;1172;445;-231
474287;2;18;2;935;154;2190;3738;1411;-300;520
474297;2;18;2;935;95;2105;2918;1398;-1125;1160
474307;2;18;2;935;-51;2082;2414;1168;-1477;1656
474317;2;18;2;935;18;2061;2595;628;-1244;1706
474327;2;18;2;935;235;2266;3274;-82;-687;1275
474337;2;18;2;935;468;2446;4045;-432;-335;709
474347;2;18;2;935;656;2425;4210;-161;-258;179
474357;2;18;2;935;796;2312;4067;78;-179;-339
474367;2;18;2;935;920;2179;4081;46;-1;-722
474377;2;18;2;935;910;2152;4083;9;-63;-1058
474387;2;18;2;935;639;2133;3933;-292;-366;-1167
474397;2;18;2;935;294;2177;3841;-890;-252;-1296
474407;2;18;2;935;-130;2092;3992;-1824;116;-1384
474417;2;18;2;935;-204;1824;4216;-2758;541;-1407
474427;2;18;2;936;-80;1849;4299;-3317;1436;-1660
474437;2;18;2;936;55;1960;4471;-3677;2268;-1613
474447;2;18;2;936;74;1943;4678;-3545;2173;-1230
474457;2;18;2;936;169;1638;4420;-3471;1482;-805
474467;2;18;2;936;94;1090;3921;-3279;689;-472
474477;2;18;2;936;-348;555;3450;-3059;-212;-39
474487;2;18;2;936;-907;15;3477;-3242;-767;564
474497;2;18;2;936;-1579;-323;4573;-2965;-327;859
474507;2;18;2;936;-2455;-244;5586;-1205;17;1755
474517;2;18;2;936;-2437;-688;5115;-180;-573;3458
474527;2;18;2;936;-2156;-1090;3895;-1591;-1252;5283
474537;2;18;2;936;-1422;-1647;3334;-3494;-1980;6528
474547;2;18;2;936;-424;-2057;3213;-3098;-1761;7327
474557;2;18;2;936;554;-1820;3075;-74;-3;7119
474567;2;18;2;936;1403;-1566;3407;2522;1834;5470
474577;2;18;2;936;1411;-576;4843;3199;2125;3319
474587;2;18;2;936;660;311;5318;3451;758;2144
474597;2;18;2;936;56;7;4636;3077;-877;1655
474607;2;18;2;936;-268;-302;4612;2727;-1857;965
474617;2;18;2;936;-683;-16;4749;3600;-2426;527
474627;2;18;2;936;-639;189;4855;4966;-3090;568
474637;2;18;2;936;-323;526;5065;5793;-3508;577
474647;2;18;2;936;-232;903;5233;6086;-3998;530
474657;2;18;2;936;135;929;5239;5758;-4765;657
474667;2;18;2;936;511;717;4750;5314;-5247;670
474677;2;18;2;936;620;563;3998;5021;-5676;465
474687;2;18;2;936;941;639;3728;4694;-5673;110
474697;2;18;2;936;1373;1158;3952;4675;-4972;-284
474707;2;18;2;936;1397;1657;4872;5556;-3833;-594
474717;2;18;2;936;1135;1886;5083;6642;-3670;-642
474727;2;18;2;936;876;2018;4801;6850;-3970;-674
474737;2;18;2;936;785;1831;4875;6940;-4126;-566
474747;2;18;2;936;666;1646;4700;7621;-4037;-494
474757;2;18;2;936;693;1486;4338;8003;-3902;-591
474767;2;18;2;936;817;1436;4084;7620;-3529;-853
474777;2;18;2;936;760;1746;4274;6908;-3183;-859
474787;2;18;2;936;996;1863;4447;6646;-3402;-600
474797;2;18;2;936;1940;1641;4551;6457;-3700;-1024
474807;2;18;2;936;1207;2709;4479;5562;-4017;-1241
474817;2;18;2;936;907;2845;4782;5503;-4644;-376
474827;2;18;2;936;1015;2584;4828;6429;-5403;226
474837;2;18;2;936;836;2649;4776;7921;-6573;542
474847;2;18;2;936;749;2594;4164;10202;-7962;1019
474857;2;18;2;936;750;2587;3363;12185;-8724;1078
474867;2;18;2;936;548;2441;2668;12835;-9470;1131
474877;2;18;2;936;582;2141;2031;12605;-10049;972
474887;2;18;2;936;577;1999;1614;11796;-9743;396
474897;2;18;2;936;631;2064;1405;10638;-8530;-398
474907;2;18;2;936;676;2383;1767;9565;-6751;-1279
474917;2;18;2;936;757;2621;2585;9059;-4983;-1737
474927;2;18;2;937;936;2840;3448;9094;-4055;-1779
474937;2;18;2;937;1354;3064;3930;9582;-4424;-1115
474947;2;18;2;937;1875;2944;3794;10556;-5758;-219
474957;2;18;2;937;2303;2656;2983;11458;-7399;64
474967;2;18;2;937;2548;2607;2034;12236;-8683;-295
474977;2;18;2;937;2447;2402;1077;12983;-9129;-858
474987;2;18;2;937;1965;2408;305;12986;-8916;-1159
474997;2;18;2;937;1303;2428;88;11732;-8213;-1122
475007;2;18;2;937;1175;3104;2600;13318;-7894;-1517
475017;2;18;2;937;422;3454;2505;17745;-7858;-814
475027;2;18;2;937;135;2933;1794;18804;-8039;-267
475037;2;18;2;937;162;2887;838;17599;-7585;169
475047;2;18;2;937;529;3214;94;15661;-6692;650
475057;2;18;2;937;1125;3291;-332;14142;-6101;835
475067;2;18;2;937;1860;3297;-657;13433;-6125;725
475077;2;18;2;937;2161;3373;-1035;13174;-6565;510
475087;2;18;2;937;2008;3258;-1465;13042;-7027;-46
475097;2;18;2;937;1533;3174;-1721;12811;-6932;-450
475107;2;18;2;937;879;3168;-1582;12058;-6504;-598
475117;2;18;2;937;315;3246;-1330;11143;-6092;-470
475127;2;18;2;937;137;3190;-935;10576;-5057;50
475137;2;18;2;937;49;3219;-636;10118;-3497;858
475147;2;18;2;937;936;3244;-21;9463;-2211;1518
475157;2;18;2;937;1708;3775;128;9547;-3111;2090
475167;2;18;2;937;2337;3890;-42;10531;-5052;3043
475177;2;18;2;937;2457;3821;-587;11508;-6501;3308
475187;2;18;2;937;2494;3558;-1125;12496;-7181;2692
475197;2;18;2;937;2262;3272;-1575;13749;-6952;1746
475207;2;18;2;937;1875;3042;-1811;14647;-6319;965
475217;2;18;2;937;1558;2882;-2032;14641;-5770;364
475227;2;18;2;937;1420;3009;-2201;14112;-5459;189
475237;2;18;2;937;1318;3186;-2289;13321;-5507;814
475247;2;18;2;937;1684;3229;-2446;11986;-5922;1492
475257;2;18;2;937;2033;3238;-2369;10313;-6248;1601
475267;2;18;2;937;2186;3106;-1796;9487;-6847;1655
475277;2;18;2;937;2188;2231;-1090;10357;-7728;1760
475287;2;18;2;937;2459;1187;-1526;12535;-8238;566
475297;2;18;2;937;2241;1507;-2975;14350;-6621;-1076
475307;2;18;2;937;2525;1599;-3622;14463;-4021;-2236
475317;2;18;2;937;3031;1566;-4034;13228;-2189;-3630
475327;2;18;2;937;3422;1549;-4232;11905;-1218;-5052
475337;2;18;2;937;3809;1696;-4398;10916;-991;-6713
475347;2;18;2;937;3518;1861;-4258;10648;-1372;-7837
475357;2;18;2;937;2597;1718;-3975;11182;-2311;-8151
475367;2;18;2;937;1220;1468;-4064;11866;-2966;-7683
475377;2;18;2;937;221;1393;-4279;11854;-3128;-6641
475387;2;18;2;937;-31;876;-4586;10884;-2609;-5496
475397;2;18;2;937;134;614;-4906;9022;-1567;-4915
475407;2;18;2;937;497;594;-5018;6759;-627;-4300
475417;2;18;2;937;1280;533;-5208;4836;-181;-3953
475427;2;18;2;938;1542;837;-5515;3502;233;-3826
475437;2;18;2;938;1712;903;-5474;2901;374;-3674
475447;2;18;2;938;1730;944;-5364;2365;469;-3637
475457;2;18;2;938;1569;1085;-5097;2076;563;-3397
475467;2;18;2;938;1577;982;-4774;2078;758;-3033
475477;2;18;2;938;1720;833;-4526;2352;872;-2620
475487;2;18;2;938;1776;913;-4442;2216;1003;-2188
475497;2;18;2;938;1871;912;-4101;1200;1161;-2009
475507;2;18;2;938;1908;1108;-3712;116;1113;-2215
475517;2;18;2;938;1809;1361;-3399;234;950;-2329
475527;2;18;2;938;1749;1580;-3220;1378;832;-2533
475537;2;18;2;938;1469;1774;-3301;2894;784;-2813
475547;2;18;2;938;1244;1835;-3464;4431;873;-3065
475557;2;18;2;938;1094;1564;-3723;5765;1128;-3245
475567;2;18;2;938;923;1221;-3944;6654;1590;-3427
475577;2;18;2;938;876;826;-4171;6786;2033;-3596
475587;2;18;2;938;926;719;-4315;6090;2357;-3756
475597;2;18;2;938;861;864;-4244;5174;2166;-3400
475607;2;18;2;938;1204;650;-4330;4542;1498;-2705
475617;2;18;2;938;1716;568;-4886;4008;1009;-2622
475627;2;18;2;938;1691;841;-5229;3266;779;-2778
475637;2;18;2;938;1421;1122;-5345;2048;425;-2614
475647;2;18;2;938;1144;1127;-5156;901;203;-2461
475657;2;18;2;938;1014;910;-4819;470;190;-2419
475667;2;18;2;938;958;655;-4551;604;486;-2560
475677;2;18;2;938;907;471;-4259;714;826;-2697
475687;2;18;2;938;880;437;-3941;704;782;-2676
475697;2;18;2;938;813;563;-3789;631;321;-2472
475707;2;18;2;938;665;830;-3871;834;-200;-2257
475717;2;18;2;938;704;1034;-4223;1587;-375;-2051
475727;2;18;2;938;821;1259;-4669;2446;-117;-1980
475737;2;18;2;938;1021;1348;-4956;3001;134;-1718
475747;2;18;2;938;1426;1231;-5064;3099;-171;-1229
475757;2;18;2;938;1616;1005;-5267;2722;-864;-649
475767;2;18;2;938;1759;819;-5572;2167;-1407;-490
475777;2;18;2;938;1668;784;-5787;1934;-1631;-659
475787;2;18;2;938;1715;679;-5963;2350;-1620;-784
475797;2;18;2;938;1803;495;-6338;3049;-1405;-960
475807;2;18;2;938;1839;182;-6510;3095;-744;-860
475817;2;18;2;938;1807;88;-6254;1307;-278;-845
475827;2;18;2;938;1607;387;-5704;-1475;-267;-509
475837;2;18;2;938;1705;535;-5091;-3728;-217;-12
475847;2;18;2;938;1765;800;-4649;-5028;169;-109
475857;2;18;2;938;1606;1297;-4187;-5369;883;-761
475867;2;18;2;938;1442;1690;-3628;-4683;1577;-1333
475877;2;18;2;938;1522;1642;-3076;-3100;1439;-1693
475887;2;18;2;938;1635;1597;-3110;-1200;310;-2165
475897;2;18;2;938;1645;1595;-3903;334;-851;-2436
475907;2;18;2;938;1644;1227;-4706;904;-953;-3029
475917;2;18;2;938;1439;1019;-4979;285;-348;-4043
475927;2;18;2;939;1067;1134;-4775;-905;160;-4902
475937;2;18;2;939;752;1249;-4289;-1799;230;-5238
475947;2;18;2;939;505;1181;-3889;-1930;4;-5432
475957;2;18;2;939;316;1137;-3738;-1411;15;-5695
475967;2;18;2;939;178;962;-3702;-559;198;-5992
475977;2;18;2;939;53;763;-3908;232;661;-6464
475987;2;18;2;939;-117;619;-3994;760;1227;-6851
475997;2;18;2;939;-105;454;-3992;857;1245;-6635
476007;2;18;2;939;72;249;-4106;396;645;-5941
476017;2;18;2;939;136;128;-4261;-590;-246;-5138
476027;2;18;2;939;246;14;-4450;-1958;-900;-4527
476037;2;18;2;939;150;83;-4554;-3331;-938;-4254
476047;2;18;2;939;-6;201;-4381;-4174;-610;-3975
476057;2;18;2;939;-141;300;-4077;-4826;-208;-3627
476067;2;18;2;939;-136;378;-3752;-5360;71;-3262
476077;2;18;2;939;-108;400;-3469;-5720;343;-2961
476087;2;18;2;939;-98;477;-3207;-5648;793;-2828
476097;2;18;2;939;-17;507;-3058;-5177;1198;-2855
476107;2;18;2;939;36;647;-2984;-4331;1517;-2928
476117;2;18;2;939;-24;829;-3096;-3407;1508;-2721
476127;2;18;2;939;-12;945;-3321;-2901;1172;-2224
476137;2;18;2;939;113;965;-3622;-3062;757;-1616
476147;2;18;2;939;286;924;-3876;-3747;330;-1033
476157;2;18;2;939;458;872;-4020;-4671;131;-660
476167;2;18;2;939;504;749;-3930;-5590;161;-457
476177;2;18;2;939;489;668;-3740;-6313;460;-579
476187;2;18;2;939;297;904;-3424;-6773;872;-1009
476197;2;18;2;939;133;1118;-3011;-6529;1080;-1178
476207;2;18;2;939;119;1127;-2830;-5556;1020;-1161
476217;2;18;2;939;154;1198;-2922;-4420;937;-1166
476227;2;18;2;939;265;1186;-3129;-3637;794;-1100
476237;2;18;2;939;544;1155;-3446;-3430;571;-1149
476247;2;18;2;939;699;1231;-3622;-3775;177;-1102
476257;2;18;2;939;666;1323;-3746;-4458;-238;-939
476267;2;18;2;939;576;1331;-3838;-5220;-277;-800
476277;2;18;2;939;445;1289;-3840;-5898;234;-969
476287;2;18;2;939;322;1284;-3958;-6300;1213;-1343
476297;2;18;2;939;329;1179;-3965;-6591;2690;-1967
476307;2;18;2;939;315;1202;-3736;-6833;3913;-2454
476317;2;18;2;939;384;1231;-3529;-7275;4655;-2964
476327;2;18;2;939;520;1413;-3119;-7855;5128;-3179
476337;2;18;2;939;495;1674;-2587;-8675;5136;-3017
476347;2;18;2;939;256;2088;-2005;-9629;4601;-2540
476357;2;18;2;939;-78;2479;-1498;-10274;3787;-1753
476367;2;18;2;939;-365;2687;-1209;-10127;3159;-873
476377;2;18;2;939;-557;2701;-1253;-8887;3165;-390
476387;2;18;2;939;-591;2568;-1485;-6736;4095;-332
476397;2;18;2;939;-454;2451;-1730;-4553;5727;-602
476407;2;18;2;939;-281;2452;-1708;-3328;7099;-810
476417;2;18;2;939;38;2327;-1527;-3215;7579;-819
476427;2;18;2;940;401;2394;-1228;-3950;7178;-732
476437;2;18;2;940;578;2713;-995;-5108;6234;-536
476447;2;18;2;940;561;3043;-647;-5872;5133;-312
476457;2;18;2;940;522;3314;-188;-5473;4053;-129
476467;2;18;2;940;446;3582;113;-3749;2908;88
476477;2;18;2;940;350;3830;104;-1131;1820;303
476487;2;18;2;940;372;3861;-106;1877;896;540
476497;2;18;2;940;559;3628;-559;4594;-31;758
476507;2;18;2;940;669;3321;-1489;6412;-253;486
476517;2;18;2;940;822;3155;-2248;7014;173;66
476527;2;18;2;940;1109;2854;-2912;6530;854;-517
476537;2;18;2;940;1471;2692;-3418;5416;1423;-1235
476547;2;18;2;940;1687;2695;-3785;3834;1797;-2078
476557;2;18;2;940;1474;2813;-3713;2382;1870;-2674
476567;2;18;2;940;1342;2864;-3473;1418;1595;-2996
476577;2;18;2;940;1044;3037;-3241;1036;1236;-3116
476587;2;18;2;940;868;3100;-3021;1337;1000;-3035
476597;2;18;2;940;862;3065;-3046;2243;654;-2943
476607;2;18;2;940;950;3052;-3262;3310;503;-2914
476617;2;18;2;940;881;3016;-3406;4206;404;-2740
476627;2;18;2;940;885;2947;-3492;4710;11;-2374
476637;2;18;2;940;931;2926;-3695;4880;-639;-1795
476647;2;18;2;940;1042;2780;-4183;4975;-1197;-1062
476657;2;18;2;940;1188;2583;-4784;4799;-1133;-530
476667;2;18;2;940;1189;2500;-5142;3876;-382;-264
476677;2;18;2;940;1279;2423;-5046;2483;449;35
476687;2;18;2;940;1666;2270;-4765;1015;821;400
476697;2;18;2;940;1947;2178;-4599;-163;894;477
476707;2;18;2;940;2113;2149;-4331;-757;992;276
476717;2;18;2;940;2233;2105;-3930;-754;921;-29
476727;2;18;2;940;2243;2093;-3546;-388;529;-272
476737;2;18;2;940;2226;2039;-3163;105;-220;-236
476747;2;18;2;940;2165;1921;-2899;597;-1309;5
476757;2;18;2;940;1967;1858;-2781;1112;-2378;318
476767;2;18;2;940;1738;1717;-2718;1681;-3144;695
476777;2;18;2;940;1560;1517;-2686;2419;-3758;1274
476787;2;18;2;940;1681;1217;-2964;2913;-3930;1692
476797;2;18;2;940;1759;1032;-3597;3048;-3226;1549
476807;2;18;2;940;1803;999;-3801;2923;-1708;1257
476817;2;18;2;940;1860;1045;-3494;2133;-559;1134
476827;2;18;2;940;1908;1163;-3072;992;-247;1331
476837;2;18;2;940;2249;1283;-3098;251;-433;1574
476847;2;18;2;940;2457;1425;-3339;278;-262;1276
476857;2;18;2;940;2506;1647;-3350;688;103;829
476867;2;18;2;940;2402;1828;-3193;776;251;486
476877;2;18;2;940;2187;1989;-2926;464;102;362
476887;2;18;2;940;2017;2126;-2709;86;-142;338
476897;2;18;2;940;1871;2187;-2634;160;-173;255
476907;2;18;2;940;1698;2234;-2520;877;115;79
476917;2;18;2;940;1550;2204;-2370;1783;365;-37
