timestamp;subject_id;activity;label;seq;ax;ay;az;gx;gy;gz
626427;2;18;2;1240;405;1562;-4239;3571;6324;-7193
626437;2;18;2;1240;469;1369;-4751;2527;5800;-6223
626447;2;18;2;1240;340;1336;-5072;615;5483;-5372
626457;2;18;2;1240;39;1706;-5021;-1347;5473;-4229
626467;2;18;2;1240;-103;1933;-4678;-2740;5826;-2763
626477;2;18;2;1240;54;1400;-4246;-3208;6387;-2570
626487;2;18;2;1240;74;1919;-4231;-3091;6826;-3516
626497;2;18;2;1240;183;2656;-4456;-2872;6763;-3771
626507;2;18;2;1240;459;2776;-4868;-1893;6038;-3849
626517;2;18;2;1240;597;2704;-5467;-473;4829;-3714
626527;2;18;2;1240;608;2446;-6170;-63;3449;-3509
626537;2;18;2;1240;461;2074;-6623;-959;2129;-3179
626547;2;18;2;1240;311;1885;-6773;-2466;1038;-2749
626557;2;18;2;1240;145;1715;-6733;-4289;102;-1890
626567;2;18;2;1240;169;1470;-6491;-5874;-616;-1106
626577;2;18;2;1240;114;1408;-6218;-6906;-1295;-229
626587;2;18;2;1240;47;1086;-5931;-7652;-2068;845
626597;2;18;2;1240;79;471;-5768;-8283;-2695;1098
626607;2;18;2;1240;-20;709;-5856;-9203;-2813;1477
626617;2;18;2;1240;-10;762;-5748;-10622;-2863;2179
626627;2;18;2;1240;75;823;-5349;-12175;-2953;3065
626637;2;18;2;1240;92;949;-4985;-13027;-3168;3883
626647;2;18;2;1240;297;1055;-4571;-13340;-3603;4869
626657;2;18;2;1240;468;1268;-4278;-13384;-4054;5970
626667;2;18;2;1240;582;1374;-3928;-13225;-4474;7202
626677;2;18;2;1240;789;1218;-3522;-12920;-4851;8114
626687;2;18;2;1240;1070;1115;-3531;-12622;-5055;8210
626697;2;18;2;1240;1342;912;-3506;-12186;-4282;7630
626707;2;18;2;1240;1393;1078;-3425;-11774;-3308;6302
626717;2;18;2;1240;1541;1307;-3313;-11539;-2441;5015
626727;2;18;2;1240;1557;1569;-3082;-11276;-1940;4196
626737;2;18;2;1240;1422;1756;-2860;-10768;-1870;3846
626747;2;18;2;1240;1205;1959;-2670;-10209;-1983;3726
626757;2;18;2;1240;913;2143;-2637;-9550;-1916;4102
626767;2;18;2;1240;794;2074;-2485;-8662;-1743;4642
626777;2;18;2;1240;805;1975;-2448;-7664;-1808;5148
626787;2;18;2;1240;875;1945;-2584;-6920;-2015;5649
626797;2;18;2;1240;1098;1941;-2857;-6738;-2019;6004
626807;2;18;2;1240;1931;1958;-3248;-6907;-1680;5854
626817;2;18;2;1240;2724;1992;-4358;-5891;-2742;7529
626827;2;18;2;1240;2452;1265;-3463;-8673;-570;3574
626837;2;18;2;1240;2558;2461;-3092;-10404;117;1342
626847;2;18;2;1240;3232;2632;-2240;-10043;-528;2045
626857;2;18;2;1240;2642;2058;-1942;-9166;-1466;1477
626867;2;18;2;1240;2310;1886;-1729;-9203;-2065;571
626877;2;18;2;1240;2353;2192;-1149;-9394;-3197;-124
626887;2;18;2;1240;2281;2563;-1112;-8890;-4857;-272
626897;2;18;2;1240;1924;2389;-1191;-8677;-5679;-68
626907;2;18;2;1240;1468;2265;-1085;-8911;-5907;-37
626917;2;18;2;1240;1012;2114;-903;-9009;-6161;-226
626927;2;18;2;1241;587;2018;-792;-9031;-6167;-746
626937;2;18;2;1241;142;2091;-756;-8787;-5668;-1158
626947;2;18;2;1241;-232;2163;-761;-8180;-4754;-1373
626957;2;18;2;1241;-497;2300;-767;-7309;-3664;-1275
626967;2;18;2;1241;-502;2341;-620;-6479;-2660;-920
626977;2;18;2;1241;-403;2143;-497;-5670;-1946;-418
626987;2;18;2;1241;-201;2149;-385;-5111;-1521;-221
626997;2;18;2;1241;-133;2277;-421;-4978;-1299;-393
627007;2;18;2;1241;0;2478;-323;-5052;-936;-136
627017;2;18;2;1241;110;2673;-73;-5442;-432;235
627027;2;18;2;1241;241;2725;533;-6213;-163;199
627037;2;18;2;1241;331;3090;907;-6939;-309;-160
627047;2;18;2;1241;358;3747;1117;-7207;-607;-425
627057;2;18;2;1241;486;4425;1221;-6927;-994;-597
627067;2;18;2;1241;714;5042;1199;-5724;-1645;-466
627077;2;18;2;1241;797;5700;1019;-3670;-2602;302
627087;2;18;2;1241;822;5859;619;-1538;-3830;1443
627097;2;18;2;1241;990;5652;-25;-127;-4651;2013
627107;2;18;2;1241;986;5423;-535;58;-4870;1959
627117;2;18;2;1241;1090;5162;-735;-687;-5107;1342
627127;2;18;2;1241;1219;5057;-985;-2228;-4910;786
627137;2;18;2;1241;1249;5155;-865;-4583;-4341;45
627147;2;18;2;1241;1013;5314;-288;-6991;-3960;-871
627157;2;18;2;1241;715;5290;498;-8330;-3754;-1516
627167;2;18;2;1241;469;5395;1102;-8765;-4036;-1857
627177;2;18;2;1241;162;5456;1453;-8164;-4515;-1652
627187;2;18;2;1241;-53;5400;1536;-6567;-4695;-1270
627197;2;18;2;1241;-191;4845;850;-4915;-3964;-1419
627207;2;18;2;1241;-433;5188;5247;3674;856;-2512
627217;2;18;2;1241;-243;5125;1958;11054;4882;-2283
627227;2;18;2;1241;396;4297;1238;6415;4911;-1631
627237;2;18;2;1241;953;3779;658;1959;2526;-991
627247;2;18;2;1241;1422;3472;444;1050;465;-121
627257;2;18;2;1241;1608;3298;-159;2989;-307;218
627267;2;18;2;1241;1509;3183;-692;4060;1648;-437
627277;2;18;2;1241;720;3305;-278;2883;3468;-1490
627287;2;18;2;1241;-21;3417;176;1740;3203;-1491
627297;2;18;2;1241;-65;3559;180;1369;2305;-902
627307;2;18;2;1241;266;3751;5;1571;1966;-628
627317;2;18;2;1241;497;4038;-261;2015;1699;-679
627327;2;18;2;1241;516;4035;-396;2041;1553;-453
627337;2;18;2;1241;480;3745;-335;1898;1918;138
627347;2;18;2;1241;510;3712;-298;2664;2299;204
627357;2;18;2;1241;530;3977;-472;3416;2655;124
627367;2;18;2;1241;626;4350;-683;3254;2767;56
627377;2;18;2;1241;786;4234;-751;2736;2644;-65
627387;2;18;2;1241;785;4135;-887;1871;2525;118
627397;2;18;2;1241;827;4064;-889;1191;2405;-68
627407;2;18;2;1241;791;4174;-702;922;2229;-224
627417;2;18;2;1241;731;4154;-663;899;1806;89
627427;2;18;2;1242;711;4200;-677;1037;1299;470
627437;2;18;2;1242;431;4384;-680;925;853;1033
627447;2;18;2;1242;448;4302;-392;951;255;1748
627457;2;18;2;1242;1033;3910;-602;1047;-716;2056
627467;2;18;2;1242;774;4304;-775;929;-545;2538
627477;2;18;2;1242;1020;3931;-599;1133;-396;3035
627487;2;18;2;1242;1259;3584;-630;1666;-25;2228
627497;2;18;2;1242;1565;3471;-489;2003;712;1083
627507;2;18;2;1242;1919;3622;-530;1873;1119;-34
627517;2;18;2;1242;1840;4244;-95;2138;772;-319
627527;2;18;2;1242;2074;4318;-366;2151;-554;-592
627537;2;18;2;1242;1948;4525;-362;1406;-1132;-630
627547;2;18;2;1242;1888;4497;-432;187;-1246;-835
627557;2;18;2;1242;1542;4453;-359;-1246;-953;-1227
627567;2;18;2;1242;1053;4592;-133;-2643;-873;-1210
627577;2;18;2;1242;915;4491;116;-3061;-932;-653
627587;2;18;2;1242;1006;4363;141;-2551;-946;30
627597;2;18;2;1242;1237;4229;62;-1908;-983;737
627607;2;18;2;1242;1389;4124;-150;-1810;-1108;1159
627617;2;18;2;1242;1357;4053;-218;-2392;-1321;1545
627627;2;18;2;1242;1136;3965;-215;-3501;-1620;2089
627637;2;18;2;1242;926;3764;-118;-4961;-1835;2706
627647;2;18;2;1242;741;3633;30;-6441;-1825;3289
627657;2;18;2;1242;770;3410;342;-7105;-1490;3343
627667;2;18;2;1242;912;3430;884;-5243;-571;2785
627677;2;18;2;1242;1125;3443;1089;-1444;529;2130
627687;2;18;2;1242;1450;3446;844;1468;1085;1423
627697;2;18;2;1242;1764;3550;613;2515;1217;470
627707;2;18;2;1242;1975;3716;468;2059;1058;-301
627717;2;18;2;1242;2035;3894;413;826;564;-695
627727;2;18;2;1242;1873;4121;447;-139;-35;-869
627737;2;18;2;1242;1601;4205;526;-538;-654;-850
627747;2;18;2;1242;1414;4253;458;-662;-1173;-861
627757;2;18;2;1242;1141;4277;355;-932;-1576;-945
627767;2;18;2;1242;1012;4210;288;-1297;-2002;-732
627777;2;18;2;1242;959;4059;-8;-1472;-2184;-569
627787;2;18;2;1242;990;3914;20;-1051;-1820;-712
627797;2;18;2;1242;1118;3946;258;-291;-1631;-935
627807;2;18;2;1242;1198;3941;271;33;-1659;-1063
627817;2;18;2;1242;1250;3903;205;-203;-1498;-1313
627827;2;18;2;1242;1230;3950;346;-487;-1402;-1479
627837;2;18;2;1242;1438;3971;331;-455;-1492;-1578
627847;2;18;2;1242;1727;4078;324;-392;-1638;-1538
627857;2;18;2;1242;1638;4054;241;-699;-1871;-1207
627867;2;18;2;1242;1467;3855;159;-1238;-2321;-910
627877;2;18;2;1242;1321;3860;83;-1532;-2758;-787
627887;2;18;2;1242;1158;3836;41;-1629;-2937;-677
627897;2;18;2;1242;1196;3858;-42;-1561;-2732;-687
627907;2;18;2;1242;1266;3972;-7;-1388;-2331;-860
627917;2;18;2;1242;1298;4041;64;-1409;-2126;-964
627927;2;18;2;1243;1381;4046;72;-1504;-2176;-1019
627937;2;18;2;1243;1430;4032;40;-1706;-2185;-946
627947;2;18;2;1243;1466;4013;244;-1617;-1849;-768
627957;2;18;2;1243;1499;4002;410;-928;-1529;-352
627967;2;18;2;1243;1545;3919;278;-816;-1810;-62
627977;2;18;2;1243;1411;3786;312;-1678;-2334;-25
627987;2;18;2;1243;1298;3656;473;-2192;-2631;60
627997;2;18;2;1243;1259;3715;445;-1910;-2520;111
628007;2;18;2;1243;1284;3845;362;-1491;-2042;100
628017;2;18;2;1243;1237;3833;155;-1203;-1623;5
628027;2;18;2;1243;1245;3858;-211;-1198;-1444;-214
628037;2;18;2;1243;1196;4082;-446;-1168;-1163;-456
628047;2;18;2;1243;995;4248;-482;-911;-792;-615
628057;2;18;2;1243;733;4443;-551;-683;-479;-758
628067;2;18;2;1243;500;4529;-567;-693;-340;-747
628077;2;18;2;1243;362;4517;-466;-717;-320;-559
628087;2;18;2;1243;429;4451;-258;-599;-435;-279
628097;2;18;2;1243;564;4392;-176;-607;-547;29
628107;2;18;2;1243;636;4197;-184;-728;-689;408
628117;2;18;2;1243;650;3943;-229;-832;-1049;456
628127;2;18;2;1243;553;3812;-188;-711;-1456;424
628137;2;18;2;1243;463;3600;-248;-346;-1687;377
628147;2;18;2;1243;407;3591;-318;12;-1492;160
628157;2;18;2;1243;309;3692;-152;106;-1024;-116
628167;2;18;2;1243;254;3913;155;130;-683;-339
628177;2;18;2;1243;360;4084;239;400;-450;-483
628187;2;18;2;1243;375;4217;357;792;-267;-624
628197;2;18;2;1243;299;4339;478;1104;-538;-752
628207;2;18;2;1243;229;4501;341;1212;-1113;-817
628217;2;18;2;1243;224;4591;269;1075;-1677;-892
628227;2;18;2;1243;171;4771;299;1027;-2268;-898
628237;2;18;2;1243;159;4733;246;1127;-2925;-882
628247;2;18;2;1243;182;4653;122;1047;-3540;-959
628257;2;18;2;1243;205;4538;52;787;-4072;-1161
628267;2;18;2;1243;150;4507;-41;586;-4465;-1383
628277;2;18;2;1243;92;4345;-271;381;-4706;-1536
628287;2;18;2;1243;111;4157;-471;132;-4713;-1648
628297;2;18;2;1243;88;4070;-396;-38;-4772;-1775
628307;2;18;2;1243;51;4090;-143;-116;-5170;-1725
628317;2;18;2;1243;-58;4126;56;-184;-5777;-1428
628327;2;18;2;1243;-172;4020;42;-395;-6384;-1000
628337;2;18;2;1243;-159;3833;-50;-669;-6815;-727
628347;2;18;2;1243;-77;3810;20;-771;-6911;-599
628357;2;18;2;1243;28;3835;210;-364;-6975;-436
628367;2;18;2;1243;117;3890;137;6;-7227;-230
628377;2;18;2;1243;227;3874;0;-123;-7452;-57
628387;2;18;2;1243;203;3819;-34;-269;-7586;21
628397;2;18;2;1243;222;3789;-67;-265;-7578;-65
628407;2;18;2;1243;214;3909;-58;-250;-7483;-168
628417;2;18;2;1243;201;3982;5;-140;-7293;-262
628427;2;18;2;1244;88;4104;26;38;-7222;-390
628437;2;18;2;1244;54;4162;-55;322;-7209;-501
628447;2;18;2;1244;19;4252;-107;537;-7072;-572
628457;2;18;2;1244;-29;4341;-91;486;-7108;-505
628467;2;18;2;1244;-22;4366;-125;243;-7258;-389
628477;2;18;2;1244;37;4370;-249;22;-7205;-368
628487;2;18;2;1244;130;4408;-175;-51;-7017;-380
628497;2;18;2;1244;216;4399;-102;-96;-6994;-291
628507;2;18;2;1244;293;4319;-103;-373;-7003;-187
628517;2;18;2;1244;337;4195;-96;-601;-6871;-139
628527;2;18;2;1244;403;4091;-75;-799;-6775;-23
628537;2;18;2;1244;404;4015;-65;-1121;-6706;151
628547;2;18;2;1244;407;3979;19;-1262;-6546;326
628557;2;18;2;1244;331;3959;114;-1191;-6294;429
628567;2;18;2;1244;255;3870;79;-1002;-6030;484
628577;2;18;2;1244;283;3856;-73;-865;-5545;422
628587;2;18;2;1244;306;3851;-132;-729;-4975;384
628597;2;18;2;1244;277;3876;-120;-723;-4569;448
628607;2;18;2;1244;272;3902;-50;-806;-4423;607
628617;2;18;2;1244;234;3904;7;-918;-4409;828
628627;2;18;2;1244;226;3876;32;-1045;-4344;1055
628637;2;18;2;1244;284;3868;69;-1145;-4110;1189
628647;2;18;2;1244;376;3891;198;-1192;-3786;1284
628657;2;18;2;1244;503;3921;255;-1143;-3564;1281
628667;2;18;2;1244;743;4083;130;-987;-3256;1108
628677;2;18;2;1244;859;4275;173;-669;-2753;762
628687;2;18;2;1244;771;4503;101;-297;-2248;295
628697;2;18;2;1244;644;4613;-119;-149;-1736;-202
628707;2;18;2;1244;440;4664;-441;-348;-1385;-602
628717;2;18;2;1244;149;4756;-699;-651;-1408;-753
628727;2;18;2;1244;-42;4768;-989;-872;-1888;-582
628737;2;18;2;1244;-64;4954;-1055;-957;-2329;-119
628747;2;18;2;1244;114;4935;-916;-1002;-2514;242
628757;2;18;2;1244;417;4936;-644;-1416;-2696;545
628767;2;18;2;1244;771;4852;-390;-2081;-3061;759
628777;2;18;2;1244;1038;4589;-279;-2459;-3600;911
628787;2;18;2;1244;1175;4247;-451;-2572;-4086;1048
628797;2;18;2;1244;1210;3915;-497;-2717;-4402;1208
628807;2;18;2;1244;1184;3726;-407;-2773;-4637;1334
628817;2;18;2;1244;1147;3671;-231;-2821;-4890;1401
628827;2;18;2;1244;1155;3640;-128;-2675;-5003;1369
628837;2;18;2;1244;1160;3614;-164;-2359;-4784;1151
628847;2;18;2;1244;1228;3615;-135;-2268;-4446;875
628857;2;18;2;1244;1205;3733;17;-2054;-4137;644
628867;2;18;2;1244;1146;3872;154;-1642;-3883;514
628877;2;18;2;1244;1098;3969;305;-887;-3751;476
628887;2;18;2;1244;1041;3976;229;-100;-3690;536
628897;2;18;2;1244;941;3895;-36;532;-3498;581
628907;2;18;2;1244;871;3844;-261;662;-3223;611
628917;2;18;2;1244;759;3878;-242;471;-3059;695
628927;2;18;2;1245;637;3898;-131;172;-3042;906
628937;2;18;2;1245;636;3966;54;6;-3053;1131
628947;2;18;2;1245;734;3952;176;116;-3015;1329
628957;2;18;2;1245;904;3962;216;330;-2973;1417
628967;2;18;2;1245;1044;3938;145;420;-2873;1362
628977;2;18;2;1245;1154;3912;146;252;-2742;1177
628987;2;18;2;1245;1170;3935;234;46;-2651;946
628997;2;18;2;1245;1108;3958;389;37;-2670;766
629007;2;18;2;1245;1001;3962;401;163;-2836;696
629017;2;18;2;1245;965;3933;313;291;-3031;702
629027;2;18;2;1245;933;3915;204;373;-3140;686
629037;2;18;2;1245;912;3940;158;358;-3219;649
629047;2;18;2;1245;896;4020;143;211;-3334;619
629057;2;18;2;1245;962;4073;140;32;-3435;629
629067;2;18;2;1245;1118;4097;93;-197;-3464;541
629077;2;18;2;1245;1168;4079;117;-301;-3461;354
629087;2;18;2;1245;1152;4132;140;-366;-3473;184
629097;2;18;2;1245;1131;4145;143;-635;-3620;145
629107;2;18;2;1245;1089;4127;158;-974;-3775;129
629117;2;18;2;1245;1009;4116;174;-1088;-3786;112
629127;2;18;2;1245;910;4104;152;-1016;-3741;62
629137;2;18;2;1245;854;4157;146;-1006;-3782;84
629147;2;18;2;1245;892;4150;109;-1120;-3913;171
629157;2;18;2;1245;996;4108;12;-1279;-4017;195
629167;2;18;2;1245;1051;4067;1;-1333;-4015;162
629177;2;18;2;1245;1057;4079;80;-1330;-4044;124
629187;2;18;2;1245;1068;4106;152;-1367;-4131;74
629197;2;18;2;1245;1061;4122;190;-1314;-4165;-17
629207;2;18;2;1245;1025;4136;237;-1165;-4205;-122
629217;2;18;2;1245;977;4210;239;-1011;-4299;-219
629227;2;18;2;1245;846;4179;188;-903;-4454;-248
629237;2;18;2;1245;704;4149;50;-776;-4515;-290
629247;2;18;2;1245;561;4240;-20;-384;-4393;-333
629257;2;18;2;1245;505;4432;-1;268;-4257;-356
629267;2;18;2;1245;375;4549;-38;1093;-4233;-376
629277;2;18;2;1245;301;4479;-425;1897;-4267;-288
629287;2;18;2;1245;318;4463;-954;2115;-4347;-113
629297;2;18;2;1245;363;4451;-1266;1484;-4629;96
629307;2;18;2;1245;392;4407;-1300;470;-5050;268
629317;2;18;2;1245;498;4412;-1103;-317;-5480;165
629327;2;18;2;1245;637;4588;-671;-719;-5945;171
629337;2;18;2;1245;717;4589;-392;-838;-6387;91
629347;2;18;2;1245;684;4475;-369;-1068;-6860;-21
629357;2;18;2;1245;592;4329;-492;-1322;-7211;-96
629367;2;18;2;1245;505;4106;-613;-1245;-7379;-64
629377;2;18;2;1245;360;3957;-758;-853;-7429;86
629387;2;18;2;1245;293;3859;-1013;-730;-7338;325
629397;2;18;2;1245;219;3740;-1137;-1122;-7226;597
629407;2;18;2;1245;286;3670;-1174;-1702;-7061;725
629417;2;18;2;1245;400;3679;-1054;-2175;-6871;847
629427;2;18;2;1246;590;3673;-854;-2427;-6750;772
629437;2;18;2;1246;752;3774;-675;-2369;-6673;599
629447;2;18;2;1246;901;3895;-413;-1841;-6550;429
629457;2;18;2;1246;950;3925;-301;-1225;-6390;271
629467;2;18;2;1246;955;3893;-355;-822;-6000;4
629477;2;18;2;1246;843;3918;-379;-693;-5423;-261
629487;2;18;2;1246;712;3933;-286;-548;-4834;-428
629497;2;18;2;1246;645;3958;-241;-210;-4323;-474
629507;2;18;2;1246;595;3959;-257;230;-3787;-515
629517;2;18;2;1246;606;4012;-320;602;-3263;-476
629527;2;18;2;1246;588;4059;-325;841;-2734;-415
629537;2;18;2;1246;610;4129;-299;1040;-2243;-407
629547;2;18;2;1246;597;4203;-389;1103;-1740;-486
629557;2;18;2;1246;585;4290;-450;925;-1229;-498
629567;2;18;2;1246;522;4244;-529;522;-727;-470
629577;2;18;2;1246;450;4107;-682;-6;-160;-507
629587;2;18;2;1246;381;4125;-655;-414;523;-503
629597;2;18;2;1246;354;4078;-524;-551;1189;-481
629607;2;18;2;1246;318;3999;-461;-595;1651;-388
629617;2;18;2;1246;339;3829;-493;-634;2025;-300
629627;2;18;2;1246;384;3640;-505;-612;2477;-334
629637;2;18;2;1246;427;3561;-449;-451;2910;-483
629647;2;18;2;1246;504;3646;-423;-28;3274;-602
629657;2;18;2;1246;489;3749;-326;484;3588;-656
629667;2;18;2;1246;481;3847;-255;965;3810;-650
629677;2;18;2;1246;457;3908;-308;1359;4016;-630
629687;2;18;2;1246;435;3950;-414;1754;4236;-579
629697;2;18;2;1246;377;3991;-592;2185;4481;-502
629707;2;18;2;1246;340;4025;-801;2566;4711;-420
629717;2;18;2;1246;302;4010;-1125;2773;4942;-385
629727;2;18;2;1246;262;4024;-1540;2709;5237;-461
629737;2;18;2;1246;252;4005;-1867;2292;5730;-530
629747;2;18;2;1246;240;3960;-1947;1406;6304;-582
629757;2;18;2;1246;226;3957;-1734;252;6827;-575
629767;2;18;2;1246;244;3995;-1312;-690;7236;-519
629777;2;18;2;1246;255;3976;-849;-820;7835;-516
629787;2;18;2;1246;199;3936;-493;16;8566;-573
629797;2;18;2;1246;190;3838;-464;1133;9263;-608
629807;2;18;2;1246;147;3762;-601;1944;9937;-575
629817;2;18;2;1246;101;3699;-718;2527;10442;-402
629827;2;18;2;1246;109;3570;-995;2599;10716;-116
629837;2;18;2;1246;243;3438;-1212;2454;11046;4
629847;2;18;2;1246;400;3350;-1328;2592;11494;16
629857;2;18;2;1246;520;3423;-1344;2910;11849;-33
629867;2;18;2;1246;505;3551;-1339;3296;12032;86
629877;2;18;2;1246;456;3605;-1352;3636;12227;147
629887;2;18;2;1246;392;3695;-1404;3732;12420;26
629897;2;18;2;1246;285;3807;-1524;3726;12685;-148
629907;2;18;2;1246;111;3837;-1732;3618;13104;-205
629917;2;18;2;1246;-191;3870;-1889;3555;13508;-193
629927;2;18;2;1247;-370;3879;-2060;3470;13713;29
629937;2;18;2;1247;-384;3808;-2232;3442;14003;191
629947;2;18;2;1247;-346;3862;-2275;3672;14358;330
629957;2;18;2;1247;-259;3972;-2233;3858;14473;465
629967;2;18;2;1247;-154;4142;-2120;3675;14204;637
629977;2;18;2;1247;-20;4138;-2091;3341;13733;771
629987;2;18;2;1247;11;3979;-2109;2996;13198;709
629997;2;18;2;1247;18;3887;-2106;2568;12508;598
630007;2;18;2;1247;21;3919;-2029;1882;11536;924
630017;2;18;2;1247;109;3829;-1692;1503;10463;1451
630027;2;18;2;1247;306;3754;-1532;1715;9437;1670
630037;2;18;2;1247;456;3706;-1558;2060;8786;1745
630047;2;18;2;1247;512;3611;-1423;2214;8554;1762
630057;2;18;2;1247;733;3569;-1276;2545;8613;1713
630067;2;18;2;1247;1076;3661;-974;3055;8689;1651
630077;2;18;2;1247;1505;3789;-487;3405;8386;1607
630087;2;18;2;1247;1927;3932;-344;4236;7889;1356
630097;2;18;2;1247;2225;3968;-395;5885;7493;559
630107;2;18;2;1247;2104;4049;-581;6168;7580;-283
630117;2;18;2;1247;1697;3833;-511;4346;7296;-282
630127;2;18;2;1247;1461;3440;-200;2125;5783;503
630137;2;18;2;1247;1590;3396;214;2045;3992;1508
630147;2;18;2;1247;2014;3197;247;4218;3159;2050
630157;2;18;2;1247;2484;2907;-633;6082;3636;1953
630167;2;18;2;1247;2408;3203;-751;5278;4987;868
630177;2;18;2;1247;2187;3387;-281;3886;5937;-473
630187;2;18;2;1247;1732;3729;318;3075;6512;-1512
630197;2;18;2;1247;1183;4148;800;2839;6913;-1958
630207;2;18;2;1247;712;4422;1121;3012;7020;-1958
630217;2;18;2;1247;349;4330;822;3333;6270;-1326
630227;2;18;2;1247;284;3841;-161;3557;5114;-428
630237;2;18;2;1247;406;3559;-1447;3379;4394;312
630247;2;18;2;1247;788;3460;-2276;2839;4479;682
630257;2;18;2;1247;1202;3595;-2032;1705;4591;632
630267;2;18;2;1247;1562;3780;-1141;-21;3864;-21
630277;2;18;2;1247;1374;4764;42;-1823;2596;-493
630287;2;18;2;1247;1377;4880;1231;-1998;817;-344
630297;2;18;2;1247;1023;4409;1100;-1007;-1206;-254
630307;2;18;2;1247;505;3732;-85;-491;-2665;4
630317;2;18;2;1247;280;3113;-947;-986;-3494;501
630327;2;18;2;1247;293;2527;-1197;-1952;-4250;958
630337;2;18;2;1247;242;2194;-1115;-2979;-4772;1281
630347;2;18;2;1247;304;1811;-715;-3492;-5223;1395
630357;2;18;2;1247;317;1497;-481;-3567;-5824;1538
630367;2;18;2;1247;359;984;-301;-3500;-6275;1632
630377;2;18;2;1247;570;282;-385;-3478;-6402;1557
630387;2;18;2;1247;714;-83;-515;-3095;-5818;1578
630397;2;18;2;1247;845;-551;-490;-2004;-4368;1414
630407;2;18;2;1247;918;-595;-604;-173;-2457;1475
630417;2;18;2;1247;1320;-738;-1611;779;-715;588
630427;2;18;2;1248;1140;-317;-2152;358;190;-1194
630437;2;18;2;1248;812;391;-1272;1043;59;-2739
630447;2;18;2;1248;245;1100;-553;3127;-801;-2870
630457;2;18;2;1248;-178;1646;-633;4592;-1254;-2594
630467;2;18;2;1248;-181;2488;-260;5072;-185;-3206
630477;2;18;2;1248;159;3331;453;6405;1746;-3611
630487;2;18;2;1248;575;3570;142;7288;3342;-3611
630497;2;18;2;1248;1019;3223;-528;6748;4033;-3830
630507;2;18;2;1248;1255;3216;-774;5942;4034;-3823
630517;2;18;2;1248;1138;3158;-967;5825;3997;-3592
630527;2;18;2;1248;594;2968;-1120;5545;4512;-3803
630537;2;18;2;1248;-80;2723;-1048;5316;5349;-4113
630547;2;18;2;1248;-465;2601;-546;5511;5688;-3781
630557;2;18;2;1248;-320;2741;411;6636;4503;-2696
630567;2;18;2;1248;690;2846;-847;7302;3119;-1860
630577;2;18;2;1248;1663;2832;-1983;6585;2990;-1868
630587;2;18;2;1248;1962;3187;-2068;6109;2932;-2158
630597;2;18;2;1248;1101;4192;-2671;5130;2244;-1981
630607;2;18;2;1248;10;4674;-3442;3903;1174;-1121
630617;2;18;2;1248;-647;5569;-4954;3099;907;-198
630627;2;18;2;1248;-61;6333;-5225;1450;788;1007
630637;2;18;2;1248;1655;6295;-4530;-1466;-1030;2545
630647;2;18;2;1248;3209;5849;-3791;-5183;-1773;2444
630657;2;18;2;1248;3372;5787;-2627;-7399;-1110;1257
630667;2;18;2;1248;2319;5548;-2025;-6548;-1008;683
630677;2;18;2;1248;732;4933;-2160;-3147;-1146;1252
630687;2;18;2;1248;104;4009;-3511;-1030;-1414;2963
630697;2;18;2;1248;210;3812;-4391;-1582;-409;4705
630707;2;18;2;1248;573;4475;-4578;-1571;1065;4952
630717;2;18;2;1248;979;5188;-4726;511;2191;4278
630727;2;18;2;1248;2046;6113;-5379;3246;2473;3257
630737;2;18;2;1248;2987;6238;-5765;5088;1243;3028
630747;2;18;2;1248;3325;5198;-6498;3479;272;2507
630757;2;18;2;1248;2134;4596;-5963;-1683;853;632
630767;2;18;2;1248;740;4291;-4515;-5445;1529;-559
630777;2;18;2;1248;339;4252;-3229;-5737;2791;-1432
630787;2;18;2;1248;1052;3847;-2428;-6127;3790;-903
630797;2;18;2;1248;1820;4543;-2403;-9090;3041;524
630807;2;18;2;1248;2459;4992;-2583;-12267;1494;1529
630817;2;18;2;1248;2295;5265;-2586;-12039;270;1579
630827;2;18;2;1248;2030;5106;-2844;-9701;-13;1662
630837;2;18;2;1248;1783;4691;-4153;-6473;1230;533
630847;2;18;2;1248;1482;3778;-5285;-3055;3953;-610
630857;2;18;2;1248;1845;2897;-6262;-2080;5625;-710
630867;2;18;2;1248;3334;1499;-7159;-6327;6759;-639
630877;2;18;2;1248;3922;13;-5861;-16017;7140;-1798
630887;2;18;2;1248;3220;-811;-2674;-27659;6811;-3434
630897;2;18;2;1248;2359;854;3844;-32272;7540;-4564
630907;2;18;2;1248;1813;3533;8180;-22093;6186;-3762
630917;2;18;2;1248;2337;4606;4861;-8213;4666;-1073
630927;2;18;2;1249;3101;6521;1958;-7575;6276;1600
630937;2;18;2;1249;3514;8194;591;-16007;8725;3039
630947;2;18;2;1249;3187;8230;1839;-24490;10087;3681
630957;2;18;2;1249;3201;6601;5013;-25285;11523;2820
630967;2;18;2;1249;3081;4396;5827;-16878;13040;612
630977;2;18;2;1249;2379;1581;2814;-13168;12627;-667
630987;2;18;2;1249;1406;-1206;712;-17988;11428;-233
630997;2;18;2;1249;161;-2798;1780;-21937;9982;1098
631007;2;18;2;1249;-1004;-3038;4252;-20529;10203;1682
631017;2;18;2;1249;-969;-2622;4974;-15396;10317;1471
631027;2;18;2;1249;-598;-1791;4220;-12520;9569;1098
631037;2;18;2;1249;-161;-1031;3953;-12039;8665;511
631047;2;18;2;1249;23;-240;4495;-11996;8326;-754
631057;2;18;2;1249;261;594;5482;-11737;8158;-2029
631067;2;18;2;1249;644;1234;6284;-12049;7324;-2655
631077;2;18;2;1249;818;1436;5902;-12879;5485;-2509
631087;2;18;2;1249;825;1251;5226;-14518;3279;-1688
631097;2;18;2;1249;1086;689;5330;-16721;2093;-714
631107;2;18;2;1249;764;744;5966;-17669;1883;-99
631117;2;18;2;1249;330;897;6293;-17778;1870;816
631127;2;18;2;1249;724;538;5993;-17807;1358;2081
631137;2;18;2;1249;1608;609;7599;-17558;1602;2189
631147;2;18;2;1249;2003;1124;7915;-15645;1943;1666
631157;2;18;2;1249;2442;397;6635;-14284;2738;954
631167;2;18;2;1249;2324;225;7213;-15470;4116;-535
631177;2;18;2;1249;1629;418;8502;-16159;4362;-863
631187;2;18;2;1249;1316;-51;9098;-14849;3352;113
631197;2;18;2;1249;929;-740;8810;-11944;1737;2506
631207;2;18;2;1249;583;-1636;6645;-8660;185;5497
631217;2;18;2;1249;693;-2821;4063;-5971;-98;7506
631227;2;18;2;1249;1196;-3613;2882;-3845;1627;6575
631237;2;18;2;1249;975;-2681;3073;-2125;3878;3151
631247;2;18;2;1249;338;-1437;3569;-972;4869;-311
631257;2;18;2;1249;-953;-341;3782;-887;3303;-2891
631267;2;18;2;1249;-1932;323;3454;-1159;-450;-3315
631277;2;18;2;1249;-2412;927;2702;-1472;-3376;-2090
631287;2;18;2;1249;-2312;1501;2316;-1447;-4204;-943
631297;2;18;2;1249;-1527;1999;2217;-1491;-3742;597
631307;2;18;2;1249;344;2216;2438;-2595;-2374;2222
631317;2;18;2;1249;2493;1830;3531;-4282;-537;2568
631327;2;18;2;1249;3469;1335;4754;-4851;1331;1955
631337;2;18;2;1249;3237;676;5646;-4324;2172;794
631347;2;18;2;1249;1758;166;6200;-2615;2066;415
631357;2;18;2;1249;339;-942;5918;-614;1307;1215
631367;2;18;2;1249;-535;-1840;4914;143;797;1815
631377;2;18;2;1249;-857;-2270;4084;-228;1195;1990
631387;2;18;2;1249;-674;-1982;3694;-167;1935;1670
631397;2;18;2;1249;-10;-1579;3579;-268;2560;743
631407;2;18;2;1249;410;-1122;3260;87;3072;-136
631417;2;18;2;1249;576;-889;3451;797;4045;-1229
631427;2;18;2;1250;660;-358;3840;1798;4699;-2302
631437;2;18;2;1250;755;164;4083;2391;4876;-3432
631447;2;18;2;1250;648;437;4180;1611;4120;-3919
631457;2;18;2;1250;486;361;4136;595;2986;-3326
631467;2;18;2;1250;-60;267;3891;120;2445;-2453
631477;2;18;2;1250;-363;-4;3759;81;2325;-1711
631487;2;18;2;1250;-598;131;4049;606;2771;-1228
631497;2;18;2;1250;-422;254;4362;920;2900;-655
631507;2;18;2;1250;-104;315;4576;440;2380;-397
631517;2;18;2;1250;137;202;4519;-312;1625;-79
631527;2;18;2;1250;298;-75;4307;-605;1062;192
631537;2;18;2;1250;293;-338;4023;-737;883;231
631547;2;18;2;1250;101;-317;4101;-766;855;68
631557;2;18;2;1250;-9;-180;4267;-587;538;78
631567;2;18;2;1250;76;-67;4304;-571;283;101
631577;2;18;2;1250;74;114;4317;-772;184;-24
631587;2;18;2;1250;78;222;4288;-936;42;-287
631597;2;18;2;1250;30;294;4174;-814;-123;-706
631607;2;18;2;1250;-154;445;4050;-674;-7;-597
631617;2;18;2;1250;-39;197;4154;-245;209;-459
631627;2;18;2;1250;-35;112;4066;221;511;-343
631637;2;18;2;1250;107;93;4061;325;754;-207
631647;2;18;2;1250;188;188;4117;101;843;-39
631657;2;18;2;1250;184;69;4197;-263;650;153
631667;2;18;2;1250;130;-173;4322;-346;319;121
631677;2;18;2;1250;-34;-162;4206;-172;165;30
631687;2;18;2;1250;-261;-168;4092;-147;318;108
631697;2;18;2;1250;-392;-261;4136;-183;540;223
631707;2;18;2;1250;-346;-398;4124;-12;839;280
631717;2;18;2;1250;-161;-458;4048;200;1126;163
631727;2;18;2;1250;-30;-398;4073;416;1242;33
631737;2;18;2;1250;36;-260;4095;765;1061;31
631747;2;18;2;1250;-15;-191;4061;1196;749;182
631757;2;18;2;1250;-162;-239;4100;1439;346;443
631767;2;18;2;1250;-315;-291;4359;1551;-63;767
631777;2;18;2;1250;-453;-172;4618;1694;-399;978
631787;2;18;2;1250;-554;-111;4527;1586;-944;1149
631797;2;18;2;1250;-532;-232;4240;1290;-1360;1209
631807;2;18;2;1250;-304;-417;3795;1156;-1625;797
631817;2;18;2;1250;-57;-419;3458;1397;-1625;182
631827;2;18;2;1250;34;-144;3483;1965;-1287;-117
631837;2;18;2;1250;6;79;3979;2882;-1223;43
631847;2;18;2;1250;-32;247;4598;3945;-1569;280
631857;2;18;2;1250;-250;370;4484;4745;-1151;871
631867;2;18;2;1250;-342;149;4797;5775;-202;1304
631877;2;18;2;1250;-540;460;5316;6553;-38;1182
631887;2;18;2;1250;-586;700;5271;6905;-1498;1582
631897;2;18;2;1250;-318;511;4311;6552;-3343;2225
631907;2;18;2;1250;70;264;3656;5230;-4243;2274
631917;2;18;2;1250;475;320;3784;3542;-3862;1775
631927;2;18;2;1251;697;694;4812;2880;-2692;989
631937;2;18;2;1251;326;1082;5742;4101;-1909;233
631947;2;18;2;1251;810;1051;5460;6056;-3052;193
631957;2;18;2;1251;449;661;3933;5918;-3997;41
631967;2;18;2;1251;110;188;3933;5111;-1901;-272
631977;2;18;2;1251;-598;325;4438;5216;-2003;-303
631987;2;18;2;1251;-897;336;5007;5210;-3301;673
631997;2;18;2;1251;-955;410;5421;4798;-4181;1477
632007;2;18;2;1251;-798;331;4862;4833;-4502;2144
632017;2;18;2;1251;-184;24;4288;5674;-4341;2225
632027;2;18;2;1251;681;221;4311;5964;-4162;1720
632037;2;18;2;1251;1450;652;4933;5916;-4219;1049
632047;2;18;2;1251;1692;1034;5581;6922;-4550;342
632057;2;18;2;1251;1527;1135;5706;8757;-4719;-221
632067;2;18;2;1251;1264;968;5623;10357;-4181;-840
632077;2;18;2;1251;1088;1145;5461;11696;-2936;-1885
632087;2;18;2;1251;1123;1396;4809;13276;-1515;-2527
632097;2;18;2;1251;1123;1641;4301;14385;-256;-2893
632107;2;18;2;1251;1055;1969;4240;14501;86;-2946
632117;2;18;2;1251;1089;2282;3684;13514;-720;-2346
632127;2;18;2;1251;665;2789;3064;11324;-2176;-1156
632137;2;18;2;1251;293;2812;3089;9117;-4080;467
632147;2;18;2;1251;288;2615;3324;7949;-5878;1727
632157;2;18;2;1251;541;2558;3281;8374;-7007;2306
632167;2;18;2;1251;961;2485;2897;9558;-7493;2528
632177;2;18;2;1251;1476;2514;2902;9981;-7736;2450
632187;2;18;2;1251;1683;2785;3278;9483;-8120;2135
632197;2;18;2;1251;1535;2977;3274;9101;-8173;1818
632207;2;18;2;1251;1394;2732;2848;9599;-7290;1441
632217;2;18;2;1251;1341;2479;2528;10461;-5852;1037
632227;2;18;2;1251;1246;2574;2409;11020;-4897;1041
632237;2;18;2;1251;1269;2639;2120;11131;-4745;1436
632247;2;18;2;1251;1397;2633;1798;11152;-5075;1861
632257;2;18;2;1251;1555;2601;1338;11225;-5876;2361
632267;2;18;2;1251;1773;2392;1101;11186;-6749;2565
632277;2;18;2;1251;1571;2435;1026;11045;-7521;2120
632287;2;18;2;1251;1381;2653;1202;10783;-8024;1780
632297;2;18;2;1251;1157;2758;1639;10520;-8553;1631
632307;2;18;2;1251;1290;3049;1637;10430;-8873;1356
632317;2;18;2;1251;1286;2993;1499;10291;-8856;1113
632327;2;18;2;1251;1422;3186;1064;10144;-8565;790
632337;2;18;2;1251;1526;3343;911;10152;-7626;93
632347;2;18;2;1251;1432;3429;973;10880;-6636;-643
632357;2;18;2;1251;1522;3534;1052;12818;-6220;-515
632367;2;18;2;1251;1446;3650;419;14078;-6134;-407
632377;2;18;2;1251;1518;3244;347;13797;-6379;-186
632387;2;18;2;1251;1572;3046;537;13892;-6981;-279
632397;2;18;2;1251;1463;3208;588;14489;-7632;-125
632407;2;18;2;1251;1562;2855;581;14530;-8198;-172
632417;2;18;2;1251;1588;3002;336;14082;-8551;-244
632427;2;18;2;1252;2021;2458;170;13524;-8592;-210
632437;2;18;2;1252;1983;2455;-126;13172;-8062;-544
632447;2;18;2;1252;2111;2492;-514;13398;-6828;-471
632457;2;18;2;1252;2226;2489;-690;13227;-5428;-892
632467;2;18;2;1252;2467;2920;-1097;12813;-3771;-1572
632477;2;18;2;1252;2623;3360;-1201;12409;-1604;-2848
632487;2;18;2;1252;2826;3869;-1080;12977;536;-2882
632497;2;18;2;1252;2715;3660;-1471;12297;1255;-3248
632507;2;18;2;1252;2319;3647;-1794;10661;507;-2838
632517;2;18;2;1252;1571;3779;-2343;9302;-335;-2213
632527;2;18;2;1252;853;3921;-2849;9254;-741;-1475
632537;2;18;2;1252;625;3464;-3321;8929;-1263;-871
632547;2;18;2;1252;814;3135;-3279;8312;-2316;-458
632557;2;18;2;1252;977;3126;-3261;8452;-3742;519
632567;2;18;2;1252;1100;2646;-3409;8816;-5509;1949
632577;2;18;2;1252;1229;2214;-3786;8483;-6866;2946
632587;2;18;2;1252;1546;2251;-4165;7970;-6875;3055
632597;2;18;2;1252;1950;2571;-3920;7781;-5510;2490
632607;2;18;2;1252;2163;3274;-3616;7884;-3541;1653
632617;2;18;2;1252;2459;3819;-3394;6735;-1805;1034
632627;2;18;2;1252;2760;3942;-3105;4140;-350;478
632637;2;18;2;1252;2592;3907;-2711;2358;641;-25
632647;2;18;2;1252;2434;3730;-2719;2331;1019;-207
632657;2;18;2;1252;2181;3592;-2904;2755;1090;-327
632667;2;18;2;1252;1931;3125;-3094;3095;999;-308
632677;2;18;2;1252;1705;2850;-3263;3171;1017;-581
632687;2;18;2;1252;1450;2902;-3328;3045;989;-486
632697;2;18;2;1252;1392;2751;-3262;2905;706;106
632707;2;18;2;1252;1451;2735;-3225;3191;211;698
632717;2;18;2;1252;1617;2759;-3277;3805;-396;1003
632727;2;18;2;1252;1766;3123;-3000;4780;-1368;1106
632737;2;18;2;1252;1848;3191;-3182;6410;-2773;1554
632747;2;18;2;1252;1512;2909;-3894;6872;-3996;1683
632757;2;18;2;1252;883;2680;-4173;5853;-4888;2052
632767;2;18;2;1252;494;2184;-4519;4987;-5201;2618
632777;2;18;2;1252;567;1881;-4825;4624;-4109;2687
632787;2;18;2;1252;1102;1829;-4854;3577;-2018;2108
632797;2;18;2;1252;1653;2042;-4177;1654;-287;1555
632807;2;18;2;1252;2170;2227;-3448;-317;356;1177
632817;2;18;2;1252;2325;2729;-2698;-1872;4;861
632827;2;18;2;1252;2405;3004;-2301;-1702;-967;994
632837;2;18;2;1252;2535;2919;-2459;-782;-1942;783
632847;2;18;2;1252;2370;2938;-2793;104;-2581;396
632857;2;18;2;1252;2238;2780;-2928;594;-3113;237
632867;2;18;2;1252;2058;2485;-2845;624;-3598;30
632877;2;18;2;1252;1767;2307;-2899;317;-3905;-332
632887;2;18;2;1252;1564;2052;-2963;-38;-3675;-929
632897;2;18;2;1252;1440;1917;-2872;-184;-3055;-1638
632907;2;18;2;1252;1409;2042;-2788;-74;-2452;-2154
632917;2;18;2;1252;1490;2365;-2797;160;-1795;-2324
632927;2;18;2;1253;1708;2702;-2844;465;-1306;-2210
632937;2;18;2;1253;1874;3078;-2884;608;-1588;-2162
632947;2;18;2;1253;2057;3311;-3067;673;-2454;-1881
632957;2;18;2;1253;2263;3249;-3429;912;-3159;-1695
632967;2;18;2;1253;2262;3111;-3921;1588;-3082;-1704
632977;2;18;2;1253;2292;2877;-4024;1974;-2495;-2037
632987;2;18;2;1253;2340;2650;-3994;1885;-1991;-2612
632997;2;18;2;1253;2350;2587;-3780;1577;-1796;-2925
633007;2;18;2;1253;2269;2596;-3550;1518;-1850;-2989
633017;2;18;2;1253;2061;2506;-3340;1606;-2056;-2722
633027;2;18;2;1253;1809;2433;-3417;1629;-2143;-2556
633037;2;18;2;1253;1471;2508;-3762;1600;-1877;-2331
633047;2;18;2;1253;1434;2436;-4189;1396;-1401;-2119
633057;2;18;2;1253;1421;2610;-4445;686;-810;-2030
633067;2;18;2;1253;1521;2724;-4568;-373;-472;-2022
633077;2;18;2;1253;1637;2884;-4587;-1710;-260;-2246
633087;2;18;2;1253;1603;3123;-4423;-2543;77;-2567
633097;2;18;2;1253;1601;3326;-3971;-2973;547;-3117
633107;2;18;2;1253;1417;3611;-3394;-2789;772;-3662
633117;2;18;2;1253;1389;3588;-2965;-2092;961;-3870
633127;2;18;2;1253;1396;3307;-2636;-1387;1044;-4349
633137;2;18;2;1253;1287;3201;-2590;-713;985;-5127
633147;2;18;2;1253;1061;3187;-2754;96;719;-5539
633157;2;18;2;1253;1001;2845;-3109;1058;500;-5620
633167;2;18;2;1253;863;2481;-3436;2089;187;-5869
633177;2;18;2;1253;760;2227;-3805;2987;-361;-6016
633187;2;18;2;1253;717;1978;-4240;3284;-700;-5793
633197;2;18;2;1253;675;1761;-4553;2600;-501;-5491
633207;2;18;2;1253;503;1791;-4673;940;184;-5439
633217;2;18;2;1253;415;1883;-4534;-1200;967;-5396
633227;2;18;2;1253;336;2073;-4163;-3204;1739;-5383
633237;2;18;2;1253;217;2266;-3600;-4638;2207;-5366
633247;2;18;2;1253;160;2503;-3146;-5253;2478;-5278
633257;2;18;2;1253;57;2689;-2931;-5112;2830;-5393
633267;2;18;2;1253;-17;2749;-2767;-4040;3149;-5395
633277;2;18;2;1253;183;2400;-2860;-2462;3359;-5276
633287;2;18;2;1253;457;2099;-3114;-1432;3501;-5196
633297;2;18;2;1253;539;1942;-3450;-1642;3757;-5220
633307;2;18;2;1253;612;1769;-3556;-2834;4169;-5061
633317;2;18;2;1253;712;1558;-3490;-3977;4575;-4878
633327;2;18;2;1253;738;1353;-3277;-4460;5048;-4942
633337;2;18;2;1253;763;1320;-3022;-4416;5523;-5262
633347;2;18;2;1253;696;1425;-2725;-4331;6083;-5746
633357;2;18;2;1253;416;1734;-2279;-4296;6572;-6192
633367;2;18;2;1253;-21;1989;-1863;-3616;6757;-6261
633377;2;18;2;1253;-479;2159;-1669;-2140;6551;-5782
633387;2;18;2;1253;-711;2333;-1758;-263;5911;-4731
633397;2;18;2;1253;-594;2383;-2154;1147;4945;-3438
633407;2;18;2;1253;-305;2351;-2783;1338;4114;-2525
633417;2;18;2;1253;52;2230;-3519;284;3817;-1947
633427;2;18;2;1254;354;1935;-4048;-1294;4465;-1881
633437;2;18;2;1254;674;1912;-3974;-3008;5620;-2285
633447;2;18;2;1254;753;2274;-3481;-4243;6320;-2738
633457;2;18;2;1254;627;2712;-2835;-5214;6394;-2923
633467;2;18;2;1254;367;2922;-2200;-5185;6033;-2783
633477;2;18;2;1254;260;2884;-1717;-4059;5484;-2378
633487;2;18;2;1254;111;2799;-1570;-2373;4908;-1905
633497;2;18;2;1254;23;2714;-1655;-1152;4376;-1276
633507;2;18;2;1254;-18;2648;-1700;-520;3991;-557
633517;2;18;2;1254;-13;2454;-1735;-120;3756;60
633527;2;18;2;1254;86;2240;-1820;273;3611;501
633537;2;18;2;1254;212;2121;-2056;737;3573;846
633547;2;18;2;1254;420;1972;-2441;975;3820;736
633557;2;18;2;1254;594;1955;-2681;845;4207;311
633567;2;18;2;1254;896;2076;-2849;416;4384;-258
633577;2;18;2;1254;1091;2315;-2901;-458;4402;-896
633587;2;18;2;1254;1133;2496;-2716;-1434;4155;-1485
633597;2;18;2;1254;1023;2548;-2396;-1797;3707;-1954
633607;2;18;2;1254;808;2580;-2113;-1310;3325;-2246
633617;2;18;2;1254;504;2682;-1773;-117;2891;-2399
633627;2;18;2;1254;308;2390;-1610;1436;2121;-2423
633637;2;18;2;1254;82;2297;-1861;2917;1309;-2300
633647;2;18;2;1254;-100;2394;-2325;3874;717;-1683
633657;2;18;2;1254;-111;2260;-2831;4019;404;-954
633667;2;18;2;1254;-29;2063;-3367;3303;752;-523
633677;2;18;2;1254;186;1862;-3713;1748;2013;-838
633687;2;18;2;1254;256;2030;-3551;-304;3891;-1740
633697;2;18;2;1254;376;2245;-2977;-2248;5530;-2720
633707;2;18;2;1254;432;2522;-2464;-3489;6783;-3571
633717;2;18;2;1254;346;2765;-1979;-3834;7988;-4174
633727;2;18;2;1254;197;2847;-1293;-3321;8667;-4460
633737;2;18;2;1254;110;2863;-888;-1842;8184;-3952
633747;2;18;2;1254;97;2758;-974;63;6954;-2962
633757;2;18;2;1254;113;2801;-1330;1699;5637;-1887
633767;2;18;2;1254;291;2781;-1676;3103;3795;-625
633777;2;18;2;1254;449;2672;-2570;4500;1833;341
633787;2;18;2;1254;665;2497;-3728;5278;831;688
633797;2;18;2;1254;889;2309;-4482;4819;826;611
633807;2;18;2;1254;1321;2330;-4712;3282;851;253
633817;2;18;2;1254;1505;2669;-4604;1915;845;-350
633827;2;18;2;1254;1563;3012;-4027;1371;912;-913
633837;2;18;2;1254;1486;3374;-3295;2099;707;-1119
633847;2;18;2;1254;1218;3860;-2797;3780;113;-123
633857;2;18;2;1254;1000;3905;-2855;4981;-379;1394
633867;2;18;2;1254;1089;3557;-3207;5462;-624;3325
633877;2;18;2;1254;1612;2739;-3729;4951;-473;4785
633887;2;18;2;1254;2469;2155;-4474;3209;38;5091
633897;2;18;2;1254;3085;2160;-4973;565;947;4739
633907;2;18;2;1254;3330;2142;-4681;-1349;1845;4568
633917;2;18;2;1254;3543;1787;-4198;-2400;2211;3971
