timestamp;subject_id;activity;label;seq;ax;ay;az;gx;gy;gz
682927;2;19;2;1353;648;3976;-1036;-1805;1539;-538
682937;2;19;2;1353;665;3992;-1143;-1766;1615;-574
682947;2;19;2;1353;680;3988;-1195;-1873;1841;-727
682957;2;19;2;1353;625;4018;-1218;-1915;1943;-646
682967;2;19;2;1353;614;3931;-1209;-1977;2024;-600
682977;2;19;2;1353;596;3931;-1280;-2191;2217;-606
682987;2;19;2;1353;650;3865;-1221;-2420;2327;-665
682997;2;19;2;1353;680;3822;-1229;-2735;2596;-869
683007;2;19;2;1353;609;3939;-1110;-3046;2607;-849
683017;2;19;2;1353;612;3810;-1063;-3449;2646;-798
683027;2;19;2;1353;651;4004;-814;-3784;2465;-888
683037;2;19;2;1353;619;3894;-675;-3844;2043;-577
683047;2;19;2;1353;621;3997;-645;-3788;1823;-728
683057;2;19;2;1353;578;4015;-675;-3666;1827;-627
683067;2;19;2;1353;605;4004;-650;-3434;1950;-676
683077;2;19;2;1353;579;4032;-519;-3216;1833;-587
683087;2;19;2;1353;641;4059;-489;-3267;1768;-663
683097;2;19;2;1353;588;4092;-355;-3289;1474;-544
683107;2;19;2;1353;667;4002;-271;-3219;1192;-566
683117;2;19;2;1353;648;4132;-228;-3079;814;-540
683127;2;19;2;1353;697;4064;-207;-2894;555;-516
683137;2;19;2;1353;698;4169;-169;-2552;252;-519
683147;2;19;2;1353;773;4152;-265;-2240;171;-504
683157;2;19;2;1353;694;4169;-365;-2027;92;-437
683167;2;19;2;1353;711;4141;-366;-2001;118;-483
683177;2;19;2;1353;652;4123;-255;-2133;-26;-407
683187;2;19;2;1353;692;4087;-200;-2371;-137;-490
683197;2;19;2;1353;654;4111;-66;-2443;-388;-459
683207;2;19;2;1353;610;4067;-105;-2378;-562;-481
683217;2;19;2;1353;618;4145;-121;-2127;-423;-606
683227;2;19;2;1353;628;4102;-110;-1704;-370;-585
683237;2;19;2;1353;611;4070;-163;-1391;-266;-680
683247;2;19;2;1353;637;4079;-131;-1215;-352;-681
683257;2;19;2;1353;638;3965;-152;-1186;-596;-631
683267;2;19;2;1353;661;4051;-166;-1373;-765;-699
683277;2;19;2;1353;647;3974;-129;-1617;-1056;-566
683287;2;19;2;1353;649;3977;-111;-1916;-1150;-617
683297;2;19;2;1353;652;3990;8;-2168;-1160;-623
683307;2;19;2;1353;733;3971;133;-2264;-1193;-660
683317;2;19;2;1353;775;4005;111;-2299;-1090;-748
683327;2;19;2;1353;824;4065;129;-2290;-753;-896
683337;2;19;2;1353;859;4075;269;-2200;-506;-1029
683347;2;19;2;1353;870;4191;425;-2149;-457;-1110
683357;2;19;2;1353;876;4198;561;-2086;-687;-1025
683367;2;19;2;1353;824;4211;668;-1901;-1080;-991
683377;2;19;2;1353;793;4249;657;-1555;-1499;-921
683387;2;19;2;1353;745;4325;522;-1096;-1813;-828
683397;2;19;2;1353;718;4361;341;-672;-1866;-764
683407;2;19;2;1353;713;4340;244;-376;-1823;-748
683417;2;19;2;1353;756;4328;185;-304;-1906;-721
683427;2;19;2;1354;766;4284;75;-469;-2090;-688
683437;2;19;2;1354;766;4228;-18;-724;-2230;-684
683447;2;19;2;1354;772;4188;-124;-932;-2251;-716
683457;2;19;2;1354;803;4147;-201;-1152;-2214;-772
683467;2;19;2;1354;764;4123;-151;-1541;-2180;-834
683477;2;19;2;1354;740;4079;12;-2093;-2370;-814
683487;2;19;2;1354;687;4063;138;-2645;-2697;-752
683497;2;19;2;1354;657;4024;216;-2978;-2915;-678
683507;2;19;2;1354;619;4032;304;-3035;-3021;-603
683517;2;19;2;1354;617;4048;323;-2947;-2924;-578
683527;2;19;2;1354;663;4053;373;-2795;-2763;-600
683537;2;19;2;1354;680;4064;452;-2620;-2746;-600
683547;2;19;2;1354;712;4021;349;-2703;-2680;-590
683557;2;19;2;1354;675;4065;447;-2850;-2770;-673
683567;2;19;2;1354;707;3955;366;-2871;-2870;-597
683577;2;19;2;1354;714;4096;462;-2866;-2863;-739
683587;2;19;2;1354;700;4016;487;-2658;-3091;-601
683597;2;19;2;1354;690;4091;558;-2447;-3196;-679
683607;2;19;2;1354;643;4056;574;-2189;-3576;-520
683617;2;19;2;1354;612;4008;509;-2042;-3719;-579
683627;2;19;2;1354;563;4065;405;-1821;-3862;-555
683637;2;19;2;1354;536;4034;338;-1561;-3767;-634
683647;2;19;2;1354;571;4086;241;-1400;-3487;-770
683657;2;19;2;1354;610;4133;249;-1203;-3532;-788
683667;2;19;2;1354;671;4053;147;-1093;-3521;-882
683677;2;19;2;1354;658;4052;89;-1000;-3722;-828
683687;2;19;2;1354;697;3949;67;-1119;-3884;-834
683697;2;19;2;1354;674;3915;35;-1270;-4023;-757
683707;2;19;2;1354;654;3813;126;-1330;-4074;-744
683717;2;19;2;1354;651;3859;278;-1220;-4084;-745
683727;2;19;2;1354;629;3907;345;-1056;-4199;-697
683737;2;19;2;1354;676;3946;316;-868;-4299;-738
683747;2;19;2;1354;713;3987;268;-586;-4410;-738
683757;2;19;2;1354;715;3949;144;-179;-4319;-724
683767;2;19;2;1354;746;3941;-25;347;-4181;-877
683777;2;19;2;1354;760;3947;-168;553;-4201;-887
683787;2;19;2;1354;756;3926;-282;560;-4167;-900
683797;2;19;2;1354;775;3796;-284;643;-4141;-845
683807;2;19;2;1354;753;3757;-397;491;-4114;-865
683817;2;19;2;1354;690;3827;-275;39;-4083;-842
683827;2;19;2;1354;637;3866;5;-309;-4041;-752
683837;2;19;2;1354;584;3968;345;-178;-3937;-694
683847;2;19;2;1354;551;4054;607;279;-3757;-620
683857;2;19;2;1354;532;4097;758;920;-3518;-568
683867;2;19;2;1354;593;4199;784;1485;-3285;-550
683877;2;19;2;1354;680;4281;635;1811;-3126;-588
683887;2;19;2;1354;677;4362;518;1746;-3121;-656
683897;2;19;2;1354;627;4485;345;1469;-3093;-753
683907;2;19;2;1354;500;4631;259;1352;-3076;-738
683917;2;19;2;1354;269;4558;131;1542;-2956;-384
683927;2;19;2;1355;24;4522;143;1763;-2346;-453
683937;2;19;2;1355;-85;4527;244;1275;-2154;-541
683947;2;19;2;1355;-106;4468;591;687;-2161;-425
683957;2;19;2;1355;-231;4554;885;665;-1996;-215
683967;2;19;2;1355;-229;4572;1165;1057;-1337;-128
683977;2;19;2;1355;-159;4716;1397;1571;-768;-151
683987;2;19;2;1355;-37;4692;1362;1953;-501;-104
683997;2;19;2;1355;128;4740;1078;1749;-572;-379
684007;2;19;2;1355;122;4747;790;926;-889;-516
684017;2;19;2;1355;-26;4619;623;211;-1040;-591
684027;2;19;2;1355;-149;4514;618;-57;-847;-669
684037;2;19;2;1355;-215;4462;710;37;-672;-699
684047;2;19;2;1355;-274;4411;813;235;-923;-468
684057;2;19;2;1355;-297;4349;776;71;-1425;-351
684067;2;19;2;1355;-286;4356;730;-381;-1826;-317
684077;2;19;2;1355;-270;4335;700;-547;-1937;-298
684087;2;19;2;1355;-285;4310;628;-529;-1822;-362
684097;2;19;2;1355;-357;4273;659;-558;-1704;-437
684107;2;19;2;1355;-410;4221;722;-515;-1680;-443
684117;2;19;2;1355;-371;4143;758;-199;-1657;-428
684127;2;19;2;1355;-279;3994;871;398;-1520;-361
684137;2;19;2;1355;-226;3939;941;1452;-1358;-257
684147;2;19;2;1355;-222;3881;857;1898;-1262;-182
684157;2;19;2;1355;-43;3575;800;1874;-1267;-126
684167;2;19;2;1355;-22;3339;808;1449;-1402;-246
684177;2;19;2;1355;17;3535;891;1282;-1713;-397
684187;2;19;2;1355;101;3605;864;1484;-1894;-172
684197;2;19;2;1355;233;3194;758;1109;-2081;-181
684207;2;19;2;1355;234;3329;805;638;-2037;-441
684217;2;19;2;1355;302;3564;850;442;-2137;-489
684227;2;19;2;1355;408;3636;794;395;-2104;-487
684237;2;19;2;1355;423;3675;708;427;-1879;-479
684247;2;19;2;1355;331;3734;736;505;-1711;-473
684257;2;19;2;1355;282;3805;734;519;-1646;-437
684267;2;19;2;1355;227;3908;673;499;-1584;-376
684277;2;19;2;1355;149;4095;614;488;-1519;-234
684287;2;19;2;1355;82;4157;451;296;-1331;-99
684297;2;19;2;1355;49;4108;375;-151;-1293;-87
684307;2;19;2;1355;-1;4331;328;-783;-1401;-56
684317;2;19;2;1355;35;4498;125;-1411;-1557;51
684327;2;19;2;1355;69;4630;147;-1499;-1386;287
684337;2;19;2;1355;80;4447;171;-912;-1178;405
684347;2;19;2;1355;53;4394;15;-627;-916;412
684357;2;19;2;1355;71;4229;79;-794;-852;512
684367;2;19;2;1355;168;4146;200;-951;-958;576
684377;2;19;2;1355;263;4167;314;-865;-1043;652
684387;2;19;2;1355;224;3933;272;-557;-1013;727
684397;2;19;2;1355;101;3929;332;-389;-821;709
684407;2;19;2;1355;121;3922;456;25;-651;772
684417;2;19;2;1355;145;3939;477;489;-718;927
684427;2;19;2;1356;180;3854;279;725;-832;1034
684437;2;19;2;1356;216;3909;92;777;-910;945
684447;2;19;2;1356;189;3910;-64;667;-941;974
684457;2;19;2;1356;301;3962;-118;580;-872;956
684467;2;19;2;1356;420;3977;-144;447;-985;1052
684477;2;19;2;1356;346;4040;-92;204;-1227;1126
684487;2;19;2;1356;415;3805;129;774;-1292;2185
684497;2;19;2;1356;755;3832;-417;2227;-1264;1747
684507;2;19;2;1356;544;4063;-744;1554;-1477;1002
684517;2;19;2;1356;460;3680;-214;-541;-2157;1617
684527;2;19;2;1356;558;3823;72;-1178;-2873;1591
684537;2;19;2;1356;689;4107;134;-619;-3041;1589
684547;2;19;2;1356;847;4041;80;45;-2882;1713
684557;2;19;2;1356;975;4076;17;581;-2765;1701
684567;2;19;2;1356;1120;4122;-223;690;-2641;1573
684577;2;19;2;1356;1263;4164;-311;187;-2596;1329
684587;2;19;2;1356;1200;4189;-137;-728;-2826;1188
684597;2;19;2;1356;916;4336;53;-1150;-3439;1129
684607;2;19;2;1356;743;4583;230;-857;-3888;1363
684617;2;19;2;1356;625;4485;229;-296;-3810;1541
684627;2;19;2;1356;532;4598;273;429;-3561;1780
684637;2;19;2;1356;519;4197;156;998;-3081;1958
684647;2;19;2;1356;591;4120;224;1503;-2405;1841
684657;2;19;2;1356;749;3926;423;2509;-1717;1770
684667;2;19;2;1356;868;3797;618;3477;-1256;1708
684677;2;19;2;1356;913;3517;579;4247;-999;1783
684687;2;19;2;1356;1039;3213;470;4004;-889;1534
684697;2;19;2;1356;1090;3163;545;3357;-721;1214
684707;2;19;2;1356;1151;3538;649;2887;-374;895
684717;2;19;2;1356;1319;3778;872;3072;83;713
684727;2;19;2;1356;1461;3940;1073;3574;272;405
684737;2;19;2;1356;1476;4311;1031;3891;145;115
684747;2;19;2;1356;1522;4347;930;3480;-35;-352
684757;2;19;2;1356;1526;4365;979;2149;-400;-1133
684767;2;19;2;1356;1335;4611;778;-413;-1173;-2112
684777;2;19;2;1356;884;5617;996;-2576;-1965;-2485
684787;2;19;2;1356;729;5656;1205;-2846;-2693;-2394
684797;2;19;2;1356;832;5018;901;-2140;-3653;-2381
684807;2;19;2;1356;149;5757;447;-2271;-4487;-1927
684817;2;19;2;1356;107;5377;127;-1475;-5132;-1061
684827;2;19;2;1356;118;4730;-266;21;-4801;-544
684837;2;19;2;1356;143;4106;-602;1011;-4075;-212
684847;2;19;2;1356;161;3593;-691;357;-3395;4
684857;2;19;2;1356;245;3213;-365;-1425;-3160;303
684867;2;19;2;1356;440;2921;230;-3830;-3196;235
684877;2;19;2;1356;732;3436;2078;-4473;-3226;48
684887;2;19;2;1356;917;4007;2835;-1432;-3300;90
684897;2;19;2;1356;1098;3778;1858;-446;-3379;64
684907;2;19;2;1356;1255;3746;1333;-1522;-3731;-190
684917;2;19;2;1356;1272;3846;1093;-1737;-3901;-379
684927;2;19;2;1357;1154;4081;809;-1129;-3936;-600
684937;2;19;2;1357;1006;4063;602;-588;-4145;-542
684947;2;19;2;1357;880;4038;398;-477;-4599;-492
684957;2;19;2;1357;777;4079;251;-802;-5171;-424
684967;2;19;2;1357;741;4053;178;-1312;-5653;-365
684977;2;19;2;1357;808;4063;76;-1621;-5717;-476
684987;2;19;2;1357;804;3987;9;-1762;-5417;-534
684997;2;19;2;1357;887;3978;-16;-1823;-4812;-703
685007;2;19;2;1357;1029;3865;166;-1957;-4237;-735
685017;2;19;2;1357;1108;3850;356;-2114;-3686;-883
685027;2;19;2;1357;1149;3883;647;-2303;-3213;-963
685037;2;19;2;1357;1241;3893;825;-2272;-2939;-1003
685047;2;19;2;1357;1235;3880;954;-2268;-2739;-1032
685057;2;19;2;1357;1284;3817;920;-2113;-2765;-935
685067;2;19;2;1357;1241;3765;856;-2094;-2676;-865
685077;2;19;2;1357;1205;3686;758;-2171;-2514;-783
685087;2;19;2;1357;1096;3724;795;-2059;-2137;-739
685097;2;19;2;1357;964;3950;699;-1321;-1432;-638
685107;2;19;2;1357;967;4130;529;-68;-514;-544
685117;2;19;2;1357;1122;4237;439;810;143;-647
685127;2;19;2;1357;894;4507;307;793;-15;-668
685137;2;19;2;1357;498;4577;-34;-325;-1136;-412
685147;2;19;2;1357;145;4840;-346;-1549;-2321;-127
685157;2;19;2;1357;-50;5023;-740;-2050;-3205;373
685167;2;19;2;1357;-141;4916;-1106;-1945;-3032;738
685177;2;19;2;1357;-254;4710;-1270;-2022;-2231;953
685187;2;19;2;1357;-222;4260;-1119;-2672;-731;855
685197;2;19;2;1357;-363;4001;204;-1632;1497;437
685207;2;19;2;1357;-183;4003;711;1019;3086;-116
685217;2;19;2;1357;135;3967;710;1457;3131;-383
685227;2;19;2;1357;501;4061;764;1039;2079;-544
685237;2;19;2;1357;666;4137;533;1024;755;-349
685247;2;19;2;1357;676;3970;-9;536;-443;-470
685257;2;19;2;1357;533;4076;-467;-842;-1284;-1054
685267;2;19;2;1357;98;4355;-243;-1716;-1469;-1275
685277;2;19;2;1357;-258;4402;-51;-1344;-1340;-1336
685287;2;19;2;1357;-539;4510;-102;-319;-683;-1349
685297;2;19;2;1357;-528;4475;-195;583;170;-1267
685307;2;19;2;1357;-361;4220;-229;638;811;-1187
685317;2;19;2;1357;-167;4114;-131;37;1153;-1237
685327;2;19;2;1357;-44;4108;131;-621;1292;-1277
685337;2;19;2;1357;70;4088;433;-865;1399;-1299
685347;2;19;2;1357;79;4093;629;-722;1614;-1277
685357;2;19;2;1357;-87;4110;696;-512;1799;-998
685367;2;19;2;1357;42;4095;821;-394;1985;-1035
685377;2;19;2;1357;43;4190;864;-11;2088;-765
685387;2;19;2;1357;52;4164;730;493;1978;-430
685397;2;19;2;1357;112;4082;320;905;1941;-117
685407;2;19;2;1357;167;4070;-20;680;2028;19
685417;2;19;2;1357;217;3965;-327;78;2126;160
685427;2;19;2;1358;143;3951;-572;-657;2548;127
685437;2;19;2;1358;27;3854;-665;-1283;3232;154
685447;2;19;2;1358;-98;3788;-511;-1783;3898;198
685457;2;19;2;1358;-234;3796;-198;-2239;4310;261
685467;2;19;2;1358;-318;3852;41;-2538;4705;307
685477;2;19;2;1358;-391;3903;375;-2442;5256;303
685487;2;19;2;1358;-358;3977;728;-2052;5748;295
685497;2;19;2;1358;-283;3994;888;-1323;6028;335
685507;2;19;2;1358;-169;3931;875;-486;6096;326
685517;2;19;2;1358;-124;3918;664;69;6099;319
685527;2;19;2;1358;-124;3888;395;273;6310;286
685537;2;19;2;1358;-115;3868;380;392;6684;243
685547;2;19;2;1358;-139;3921;479;567;6870;262
685557;2;19;2;1358;-178;4030;573;661;6792;381
685567;2;19;2;1358;-175;4044;600;681;6684;455
685577;2;19;2;1358;-187;4104;522;643;6576;527
685587;2;19;2;1358;-227;4091;455;584;6475;606
685597;2;19;2;1358;-306;4123;423;396;6254;798
685607;2;19;2;1358;-410;4057;346;154;5922;1035
685617;2;19;2;1358;-472;4000;311;-82;5632;1171
685627;2;19;2;1358;-529;4038;-38;-122;5708;1244
685637;2;19;2;1358;-502;3993;-194;-49;6245;1266
685647;2;19;2;1358;-499;3976;-158;-55;6753;1216
685657;2;19;2;1358;-540;4061;-14;-159;6969;1195
685667;2;19;2;1358;-578;4052;142;-225;6851;1255
685677;2;19;2;1358;-628;4056;38;-215;6782;1266
685687;2;19;2;1358;-649;4029;-27;-105;6984;1172
685697;2;19;2;1358;-646;4029;-113;25;7241;1033
685707;2;19;2;1358;-593;4054;-26;89;7352;915
685717;2;19;2;1358;-430;4133;65;88;7248;819
685727;2;19;2;1358;-321;4225;44;308;6925;772
685737;2;19;2;1358;-139;4137;-99;599;6918;658
685747;2;19;2;1358;-59;4189;-143;684;7023;551
685757;2;19;2;1358;89;4084;-2;787;7105;606
685767;2;19;2;1358;371;4363;263;1114;7320;67
685777;2;19;2;1358;866;4814;904;1585;7977;-796
685787;2;19;2;1358;1198;5331;1581;2745;8056;-1453
685797;2;19;2;1358;1116;5339;1576;3724;6821;-1493
685807;2;19;2;1358;1077;5160;1068;5025;4959;-1392
685817;2;19;2;1358;857;5591;173;5976;3776;-1296
685827;2;19;2;1358;980;5393;-692;6207;3555;-968
685837;2;19;2;1358;1082;4995;-1499;5473;4013;-1037
685847;2;19;2;1358;1187;4731;-2035;4436;4700;-1014
685857;2;19;2;1358;1438;4219;-2339;3238;5407;-983
685867;2;19;2;1358;1480;3816;-2321;1423;6133;-966
685877;2;19;2;1358;1505;3380;-1636;-1462;6647;-1058
685887;2;19;2;1358;1314;3414;-1055;-3317;6431;-746
685897;2;19;2;1358;1169;3354;-253;-5209;5933;-202
685907;2;19;2;1358;1014;3394;554;-5883;5729;232
685917;2;19;2;1358;968;3616;1541;-4628;6179;851
685927;2;19;2;1359;854;3963;2676;341;7421;1490
685937;2;19;2;1359;958;3923;1929;3725;7975;2015
685947;2;19;2;1359;1346;3633;792;3132;7850;2079
685957;2;19;2;1359;1615;3680;221;1181;7647;1832
685967;2;19;2;1359;1666;3831;30;733;7876;1432
685977;2;19;2;1359;1475;3987;-195;1253;8164;1077
685987;2;19;2;1359;1272;3995;-515;1251;8177;834
685997;2;19;2;1359;1046;3955;-645;710;8017;778
686007;2;19;2;1359;712;3896;-427;336;7786;901
686017;2;19;2;1359;348;3917;-100;457;7789;965
686027;2;19;2;1359;204;3914;247;1119;8197;1003
686037;2;19;2;1359;308;3913;439;1843;8713;980
686047;2;19;2;1359;538;3952;483;2133;9005;865
686057;2;19;2;1359;764;4001;546;1964;9006;593
686067;2;19;2;1359;909;4080;546;1588;8614;287
686077;2;19;2;1359;1042;3982;426;1512;8155;-114
686087;2;19;2;1359;997;4116;109;1151;7784;-525
686097;2;19;2;1359;983;4111;-48;744;7289;-925
686107;2;19;2;1359;978;4079;-112;90;6796;-1257
686117;2;19;2;1359;790;4162;-106;-582;6342;-1519
686127;2;19;2;1359;668;4058;-195;-1411;5904;-1721
686137;2;19;2;1359;422;4314;-21;-2078;5731;-1964
686147;2;19;2;1359;415;4388;285;-1706;5652;-1773
686157;2;19;2;1359;510;4133;268;-1073;5496;-1786
686167;2;19;2;1359;757;3860;-22;-1326;5095;-2102
686177;2;19;2;1359;640;4410;91;-2101;4759;-2037
686187;2;19;2;1359;803;4144;274;-1796;4541;-2027
686197;2;19;2;1359;785;4115;153;-1342;4429;-2085
686207;2;19;2;1359;752;4104;163;-1344;4225;-2049
686217;2;19;2;1359;773;4061;283;-1592;3798;-1882
686227;2;19;2;1359;784;4061;382;-1604;3213;-1698
686237;2;19;2;1359;856;4019;193;-1578;2694;-1489
686247;2;19;2;1359;865;3985;14;-1599;2595;-1361
686257;2;19;2;1359;930;3926;-45;-1486;2817;-1266
686267;2;19;2;1359;1064;3901;30;-1360;3035;-1279
686277;2;19;2;1359;1122;3953;147;-1312;2877;-1252
686287;2;19;2;1359;1195;3887;135;-1278;2554;-1222
686297;2;19;2;1359;1142;3888;114;-1101;2377;-1264
686307;2;19;2;1359;1051;3766;160;-831;2551;-1387
686317;2;19;2;1359;936;3806;332;-580;2933;-1718
686327;2;19;2;1359;946;3939;467;-278;3061;-1746
686337;2;19;2;1359;939;3925;384;160;3200;-1702
686347;2;19;2;1359;898;3978;179;347;3152;-1678
686357;2;19;2;1359;947;4063;74;255;2780;-1667
686367;2;19;2;1359;976;4027;-160;121;2349;-1548
686377;2;19;2;1359;933;4052;-473;90;2373;-1600
686387;2;19;2;1359;932;3960;-446;95;2719;-1666
686397;2;19;2;1359;898;3954;-268;85;2838;-1793
686407;2;19;2;1359;955;4004;-116;-24;2566;-1782
686417;2;19;2;1359;936;4013;-18;-197;2156;-1715
686427;2;19;2;1360;886;3963;86;-264;1890;-1565
686437;2;19;2;1360;784;3983;-3;58;2055;-1544
686447;2;19;2;1360;633;3952;-82;460;2571;-1545
686457;2;19;2;1360;519;3978;24;709;2977;-1470
686467;2;19;2;1360;336;4149;80;636;3027;-1323
686477;2;19;2;1360;278;4154;-159;365;2928;-1111
686487;2;19;2;1360;253;4216;-488;-351;3055;-1197
686497;2;19;2;1360;109;4437;-306;-775;3455;-1046
686507;2;19;2;1360;-63;4332;-39;-655;3877;-1141
686517;2;19;2;1360;-457;4349;242;-476;4091;-1224
686527;2;19;2;1360;-801;4221;464;-249;4002;-1044
686537;2;19;2;1360;-1031;4170;643;283;3862;-877
686547;2;19;2;1360;-1083;4268;758;1115;3798;-828
686557;2;19;2;1360;-870;4341;717;1779;3398;-828
686567;2;19;2;1360;-358;4417;356;1553;2356;-1138
686577;2;19;2;1360;-415;4614;132;720;817;-1575
686587;2;19;2;1360;-889;4686;-130;239;-516;-1598
686597;2;19;2;1360;-1280;4486;-288;409;-1048;-1699
686607;2;19;2;1360;-1656;4370;-258;992;-1204;-1514
686617;2;19;2;1360;-1783;4191;-263;1736;-1280;-1345
686627;2;19;2;1360;-1695;4034;-186;2176;-1226;-1165
686637;2;19;2;1360;-1519;3956;-137;2383;-1120;-1010
686647;2;19;2;1360;-1291;3925;-33;2428;-983;-1010
686657;2;19;2;1360;-1083;3939;200;2574;-888;-1115
686667;2;19;2;1360;-971;3912;276;2645;-961;-1099
686677;2;19;2;1360;-937;3807;34;2677;-559;-1231
686687;2;19;2;1360;-916;3767;166;2812;135;-1471
686697;2;19;2;1360;-887;3802;406;3095;547;-1659
686707;2;19;2;1360;-940;3807;421;3094;425;-1719
686717;2;19;2;1360;-948;3699;183;2745;99;-1822
686727;2;19;2;1360;-926;3563;-38;2649;-36;-2002
686737;2;19;2;1360;-903;3442;-199;2911;-19;-2212
686747;2;19;2;1360;-983;3547;-206;3181;-153;-2266
686757;2;19;2;1360;-993;3523;-177;3478;-695;-1877
686767;2;19;2;1360;-860;3303;-267;3698;-1139;-1548
686777;2;19;2;1360;-823;3153;-268;3727;-1497;-1345
686787;2;19;2;1360;-802;3023;-259;3648;-1768;-1159
686797;2;19;2;1360;-770;2932;-274;3497;-1738;-1076
686807;2;19;2;1360;-666;2803;-175;3388;-1522;-1009
686817;2;19;2;1360;-574;2641;-83;3211;-1309;-976
686827;2;19;2;1360;-476;2585;-74;3054;-1130;-910
686837;2;19;2;1360;-292;2488;-164;2977;-865;-925
686847;2;19;2;1360;-108;2434;-91;3406;-689;-899
686857;2;19;2;1360;-149;2452;-106;4090;-888;-532
686867;2;19;2;1360;-162;2188;-379;4484;-1215;-244
686877;2;19;2;1360;-245;2090;-725;3856;-1419;-436
686887;2;19;2;1360;-111;2075;-750;2625;-1377;-671
686897;2;19;2;1360;109;1830;-703;1361;-1418;-1039
686907;2;19;2;1360;297;1873;-703;-379;-1742;-1180
686917;2;19;2;1360;213;1886;-1407;-1991;-1739;-1413
686927;2;19;2;1361;-244;1995;-1827;-2677;-605;-1877
686937;2;19;2;1361;-304;2070;-1810;-1509;688;-1813
686947;2;19;2;1361;17;2067;-1930;-1303;689;-1455
686957;2;19;2;1361;-197;2681;-1463;-2356;-321;-906
686967;2;19;2;1361;117;2606;-1017;-2890;-1664;-814
686977;2;19;2;1361;-201;3177;-592;-1799;-1871;-990
686987;2;19;2;1361;-263;3400;-340;997;-1744;-1069
686997;2;19;2;1361;-466;3496;-660;3516;-1606;-669
687007;2;19;2;1361;-479;2882;-903;4642;-1542;-237
687017;2;19;2;1361;-843;3220;-733;4531;-1688;-36
687027;2;19;2;1361;-949;3330;-808;4592;-1812;307
687037;2;19;2;1361;-719;3338;-1043;4431;-2172;689
687047;2;19;2;1361;-331;3272;-1323;4221;-2413;806
687057;2;19;2;1361;-3;3289;-1519;4276;-2105;388
687067;2;19;2;1361;221;3356;-1632;3455;-1843;-116
687077;2;19;2;1361;260;3327;-1594;2736;-1838;-510
687087;2;19;2;1361;106;3336;-1375;2644;-1580;-914
687097;2;19;2;1361;-92;3308;-1010;3354;-1848;-1168
687107;2;19;2;1361;-251;3056;-1164;4049;-2624;-1098
687117;2;19;2;1361;-496;2847;-1555;4355;-3039;-1033
687127;2;19;2;1361;-707;2795;-1733;5270;-3150;-876
687137;2;19;2;1361;-870;2946;-1956;5809;-2992;-336
687147;2;19;2;1361;-726;3181;-1951;5667;-3013;88
687157;2;19;2;1361;-204;3383;-1839;4560;-2592;276
687167;2;19;2;1361;284;3555;-1595;3455;-1595;-397
687177;2;19;2;1361;585;3951;-1437;2426;-299;-1530
687187;2;19;2;1361;772;4013;-931;2227;1174;-2481
687197;2;19;2;1361;745;3676;-957;2768;2310;-3187
687207;2;19;2;1361;492;3896;-912;3521;2704;-3169
687217;2;19;2;1361;-41;3937;-1269;4387;2180;-1881
687227;2;19;2;1361;-734;3984;-2098;4549;1558;-617
687237;2;19;2;1361;-1044;4325;-3088;3236;1620;132
687247;2;19;2;1361;-875;4761;-3411;1539;2043;47
687257;2;19;2;1361;-843;5218;-3533;-378;1850;-124
687267;2;19;2;1361;-1012;5354;-3573;-2065;1492;-427
687277;2;19;2;1361;-1263;5049;-3172;-2911;1893;-871
687287;2;19;2;1361;-1623;5140;-2186;-2587;2884;-1237
687297;2;19;2;1361;-1525;5227;-1361;-1315;3164;-1156
687307;2;19;2;1361;-1352;5265;-1372;-85;2779;-823
687317;2;19;2;1361;-1086;5033;-1996;492;2557;-966
687327;2;19;2;1361;-1074;5053;-2574;-121;2554;-1430
687337;2;19;2;1361;-909;5038;-2748;-1187;2048;-1895
687347;2;19;2;1361;-1174;5429;-2934;-1931;1548;-2306
687357;2;19;2;1361;-1252;5427;-2918;-1960;1247;-2959
687367;2;19;2;1361;-1352;5444;-2776;-1814;1018;-3307
687377;2;19;2;1361;-1794;5668;-2647;-2033;300;-3425
687387;2;19;2;1361;-1909;5554;-2826;-1446;-1229;-3012
687397;2;19;2;1361;-1867;5348;-3768;-614;-2121;-2903
687407;2;19;2;1361;-1707;4929;-4072;-451;-1719;-3113
687417;2;19;2;1361;-1437;4702;-3725;-1522;-1298;-3505
687427;2;19;2;1362;-976;4693;-2946;-3200;-1065;-4128
687437;2;19;2;1362;-603;4984;-1500;-3661;-653;-5041
687447;2;19;2;1362;-183;5164;-504;-1756;-1087;-5410
687457;2;19;2;1362;-94;4798;-843;314;-2023;-5638
687467;2;19;2;1362;-226;4101;-1364;581;-2690;-6058
687477;2;19;2;1362;-672;3650;-1443;633;-3248;-6338
687487;2;19;2;1362;-1174;2965;-1880;1496;-3681;-6184
687497;2;19;2;1362;-1590;2282;-2890;1352;-3474;-5881
687507;2;19;2;1362;-1806;1792;-3132;36;-2693;-5416
687517;2;19;2;1362;-1855;1614;-2790;-1217;-2495;-4687
687527;2;19;2;1362;-1763;2042;-2369;-1202;-2016;-4108
687537;2;19;2;1362;-1758;2439;-1619;779;-982;-3494
687547;2;19;2;1362;-1404;2735;-1345;2947;-417;-3007
687557;2;19;2;1362;-1292;2883;-1153;3556;-493;-2607
687567;2;19;2;1362;-1341;2761;-1024;3976;-892;-2535
687577;2;19;2;1362;-1574;2369;-1524;4295;-826;-2680
687587;2;19;2;1362;-1901;1996;-1918;3879;40;-3112
687597;2;19;2;1362;-1962;1623;-1658;3568;1382;-3253
687607;2;19;2;1362;-1477;1583;-1273;4019;2162;-3196
687617;2;19;2;1362;-1093;1378;-1203;4385;2683;-3183
687627;2;19;2;1362;-710;1147;-907;5198;2869;-3788
687637;2;19;2;1362;-803;1070;-762;5780;2739;-4603
687647;2;19;2;1362;-1340;1123;-483;6691;2118;-5053
687657;2;19;2;1362;-1719;828;-1044;7764;993;-4818
687667;2;19;2;1362;-1827;95;-1993;6101;-365;-4521
687677;2;19;2;1362;-2254;-313;-2448;3628;-652;-4838
687687;2;19;2;1362;-2729;-489;-2303;2330;-321;-5374
687697;2;19;2;1362;-3326;-125;-2781;287;1032;-6417
687707;2;19;2;1362;-4053;754;-1556;-1627;2522;-6424
687717;2;19;2;1362;-4340;1695;-521;-1782;2335;-5183
687727;2;19;2;1362;-4205;1588;-799;-2107;298;-3160
687737;2;19;2;1362;-4384;2186;-1555;-4343;-1658;-1527
687747;2;19;2;1362;-3673;2360;-1153;-4031;-1291;-1135
687757;2;19;2;1362;-2934;2699;-766;-1307;150;-1732
687767;2;19;2;1362;-2253;2492;-942;-672;-31;-2068
687777;2;19;2;1362;-2158;2359;-1121;-2671;-1432;-2545
687787;2;19;2;1362;-2738;2490;-1179;-3756;-2642;-2572
687797;2;19;2;1362;-3371;2785;-1545;-2822;-3293;-1588
687807;2;19;2;1362;-3524;2563;-2280;-632;-3650;463
687817;2;19;2;1362;-3361;2388;-3637;1362;-3342;2122
687827;2;19;2;1362;-3135;2946;-4823;2016;-3034;3680
687837;2;19;2;1362;-3009;4365;-5805;1004;-5305;5795
687847;2;19;2;1362;-2389;6004;-6625;-5478;-10761;5768
687857;2;19;2;1362;-3805;9821;-7031;-17704;-16010;2100
687867;2;19;2;1362;-5532;10610;-5066;-27135;-17630;-4143
687877;2;19;2;1362;-6544;9513;-2272;-25635;-13933;-12861
687887;2;19;2;1362;-6400;7151;730;-12850;-8155;-17874
687897;2;19;2;1362;-5377;3669;2536;6729;-5813;-18254
687907;2;19;2;1362;-4686;-283;1998;25475;-6481;-15536
687917;2;19;2;1362;-5829;-4546;-1201;32767;-6785;-9992
687927;2;19;2;1363;-6391;-10917;-1685;17391;28430;-17843
687937;2;19;2;1363;-9926;1374;12421;7102;32550;-21593
687947;2;19;2;1363;-5071;1235;10818;2540;1287;792
687957;2;19;2;1363;1032;-2751;-992;9085;-636;3420
687967;2;19;2;1363;873;-654;-2422;15960;5068;1760
687977;2;19;2;1363;622;2596;-3305;9342;3554;423
687987;2;19;2;1363;-27;3891;-3068;-7763;-719;-2606
687997;2;19;2;1363;-1202;3314;-1540;-23171;-3897;-5672
688007;2;19;2;1363;-3675;3676;499;-28056;-4141;-8608
688017;2;19;2;1363;-5576;3890;1801;-22192;-3282;-9302
688027;2;19;2;1363;-5778;2892;1568;-13201;-2495;-7261
688037;2;19;2;1363;-4998;1643;983;-2717;-3527;-4311
688047;2;19;2;1363;-3475;-59;155;4315;-5755;-2076
688057;2;19;2;1363;-2663;-865;-513;4057;-8085;-1283
688067;2;19;2;1363;-2774;-865;-705;-900;-11047;-1468
688077;2;19;2;1363;-3390;-597;-736;-6260;-12997;-2089
688087;2;19;2;1363;-4052;-546;-690;-9185;-12374;-3353
688097;2;19;2;1363;-4897;141;-459;-8524;-8927;-5321
688107;2;19;2;1363;-5551;1138;478;-5610;-6201;-6238
688117;2;19;2;1363;-5687;1543;427;-2073;-5668;-5302
688127;2;19;2;1363;-5197;1129;-56;235;-6618;-3897
688137;2;19;2;1363;-5124;750;-907;-1108;-8136;-2746
688147;2;19;2;1363;-5878;588;-1015;-6275;-9578;-1988
688157;2;19;2;1363;-7246;656;-398;-12376;-10356;-961
688167;2;19;2;1363;-8429;1050;741;-16222;-10483;1053
688177;2;19;2;1363;-8632;1523;1085;-15948;-9659;3662
688187;2;19;2;1363;-6987;1174;730;-12552;-7862;7015
688197;2;19;2;1363;-3177;846;28;-9874;-6993;6526
688207;2;19;2;1363;-1388;1511;-400;-9626;-6275;5462
688217;2;19;2;1363;-1101;992;181;-12065;-6895;5418
688227;2;19;2;1363;-1211;1159;1301;-13703;-8891;2638
688237;2;19;2;1363;-1826;2303;2668;-13545;-9656;1504
688247;2;19;2;1363;-3049;2108;3182;-12549;-9442;1998
688257;2;19;2;1363;-2989;1320;3627;-11239;-8907;198
688267;2;19;2;1363;-2835;1355;3457;-6886;-5492;-1333
688277;2;19;2;1363;-2540;1352;3305;-1449;-2117;-3225
688287;2;19;2;1363;-3306;1598;3186;1254;-1443;-3833
688297;2;19;2;1363;-4227;1627;2625;1875;-2602;-3505
688307;2;19;2;1363;-5002;1486;1646;2709;-3711;-2617
688317;2;19;2;1363;-5371;1361;187;4265;-3192;-2259
688327;2;19;2;1363;-5189;1360;-1244;4344;-1526;-2320
688337;2;19;2;1363;-4651;1180;-1350;2010;-301;-2727
688347;2;19;2;1363;-4355;890;-675;-602;-65;-3147
688357;2;19;2;1363;-4275;671;238;-2828;-1019;-3082
688367;2;19;2;1363;-4327;709;767;-4219;-2081;-2870
688377;2;19;2;1363;-4354;692;1144;-4458;-1879;-2887
688387;2;19;2;1363;-4233;837;1706;-3629;-1242;-2566
688397;2;19;2;1363;-3437;695;1777;-2232;-585;-2261
688407;2;19;2;1363;-2676;679;1539;-993;234;-2547
688417;2;19;2;1363;-2261;245;1318;-177;1098;-3024
688427;2;19;2;1364;-2001;-284;1645;527;1371;-3282
688437;2;19;2;1364;-2139;-257;1984;343;315;-2810
688447;2;19;2;1364;-2766;-173;2288;-913;-1160;-1665
688457;2;19;2;1364;-3306;-133;2409;-1426;-1873;-509
688467;2;19;2;1364;-3854;-58;1789;-475;-891;73
688477;2;19;2;1364;-3141;-954;1196;-2837;-336;1097
688487;2;19;2;1364;-2891;-106;1240;-4456;1262;259
688497;2;19;2;1364;-2426;54;2109;-3813;2437;-9
688507;2;19;2;1364;-2710;717;2559;-2789;2495;-353
688517;2;19;2;1364;-3013;1045;2481;-2116;2110;-289
688527;2;19;2;1364;-3155;1148;2092;-1909;2419;-823
688537;2;19;2;1364;-3308;1455;1990;-1810;3467;-1634
688547;2;19;2;1364;-3593;1756;2148;-1762;4248;-2125
688557;2;19;2;1364;-3616;1626;2234;-1155;4828;-2518
688567;2;19;2;1364;-3528;1539;2193;259;5326;-2907
688577;2;19;2;1364;-3500;1369;2088;1766;5443;-3071
688587;2;19;2;1364;-3467;1029;1782;3077;5046;-3164
688597;2;19;2;1364;-3536;610;1013;3737;5079;-3302
688607;2;19;2;1364;-3558;174;639;3407;5772;-3674
688617;2;19;2;1364;-3628;-112;801;2658;6083;-3725
688627;2;19;2;1364;-3444;-266;1032;1715;5536;-3223
688637;2;19;2;1364;-3196;-463;1072;771;4744;-2739
688647;2;19;2;1364;-3144;-410;959;117;4675;-2635
688657;2;19;2;1364;-3333;-192;1017;34;5357;-2853
688667;2;19;2;1364;-3329;-20;1344;918;6050;-2931
688677;2;19;2;1364;-3199;109;1236;2510;6623;-3092
688687;2;19;2;1364;-3241;-102;902;4578;7666;-3493
688697;2;19;2;1364;-3384;-567;635;7030;9031;-3789
688707;2;19;2;1364;-3570;-890;433;8549;9631;-3436
688717;2;19;2;1364;-3622;-1149;494;8708;9051;-2555
688727;2;19;2;1364;-3827;-1108;454;7793;7653;-908
688737;2;19;2;1364;-4192;-855;134;5207;6063;985
688747;2;19;2;1364;-4529;-290;-193;1376;5014;2231
688757;2;19;2;1364;-4658;249;-460;-1453;5009;2957
688767;2;19;2;1364;-4358;526;-330;-2040;6016;2767
688777;2;19;2;1364;-4162;1160;-188;-914;7433;1878
688787;2;19;2;1364;-4006;1529;21;1603;8375;1220
688797;2;19;2;1364;-4116;1575;-132;5101;8267;902
688807;2;19;2;1364;-4317;1044;-672;8565;7740;952
688817;2;19;2;1364;-4649;506;-1439;10985;7037;1125
688827;2;19;2;1364;-4993;-314;-2260;12130;6508;1337
688837;2;19;2;1364;-5071;-1328;-2976;12374;6206;1430
688847;2;19;2;1364;-5110;-1893;-3277;11312;6095;1345
688857;2;19;2;1364;-5321;-1774;-3198;7968;5295;1912
688867;2;19;2;1364;-5359;-1544;-2994;3226;3989;3452
688877;2;19;2;1364;-5057;-1541;-2592;-918;2609;5254
688887;2;19;2;1364;-4365;-1410;-2051;-3813;1436;6635
688897;2;19;2;1364;-3664;-970;-1558;-5580;424;7791
688907;2;19;2;1364;-3423;-375;-1084;-6223;-368;8561
688917;2;19;2;1364;-3619;21;-914;-6114;-618;8677
688927;2;19;2;1365;-3992;363;-787;-5188;130;8162
688937;2;19;2;1365;-4229;709;-570;-2736;981;7859
688947;2;19;2;1365;-4317;823;-674;550;1837;7937
688957;2;19;2;1365;-4487;808;-926;3125;2801;8182
688967;2;19;2;1365;-4235;521;-1025;3742;3664;8035
688977;2;19;2;1365;-4033;717;-1007;2417;4253;7330
688987;2;19;2;1365;-4273;1277;-1000;161;4694;6566
688997;2;19;2;1365;-4612;1881;-766;-1563;5269;5803
689007;2;19;2;1365;-4880;2496;-617;-1460;5759;5419
689017;2;19;2;1365;-5111;3037;-871;116;6012;5756
689027;2;19;2;1365;-4999;3212;-1326;1794;6138;6560
689037;2;19;2;1365;-4414;3058;-1658;2451;6068;7363
689047;2;19;2;1365;-3557;2434;-1652;1166;5501;7812
689057;2;19;2;1365;-2954;2140;-1579;-1433;4307;7444
689067;2;19;2;1365;-2829;2073;-1248;-4162;3139;7086
689077;2;19;2;1365;-2882;2214;-784;-5341;2073;6673
689087;2;19;2;1365;-3238;2331;-571;-4871;1604;6473
689097;2;19;2;1365;-3523;2041;-571;-3119;1405;6685
689107;2;19;2;1365;-3649;1760;-777;-608;1745;7052
689117;2;19;2;1365;-3617;1420;-897;2219;2225;8044
689127;2;19;2;1365;-3260;1102;-1372;3960;2564;8872
689137;2;19;2;1365;-2859;1154;-1782;3596;3081;9282
689147;2;19;2;1365;-2508;1386;-1982;1786;3465;9593
689157;2;19;2;1365;-2210;1608;-1828;-505;3894;9580
689167;2;19;2;1365;-1979;1898;-1515;-2249;4150;9293
689177;2;19;2;1365;-1862;2280;-1194;-3314;4367;9005
689187;2;19;2;1365;-1946;2826;-861;-3657;4533;8740
689197;2;19;2;1365;-2135;3153;-484;-3331;4418;8978
689207;2;19;2;1365;-2332;3353;-291;-2450;3942;9363
689217;2;19;2;1365;-2569;3546;-341;-1286;3236;10295
689227;2;19;2;1365;-2579;3570;-669;-570;2412;11316
689237;2;19;2;1365;-2060;3318;-1196;-940;1689;11982
689247;2;19;2;1365;-1463;3015;-1381;-2147;1105;11837
689257;2;19;2;1365;-1234;3038;-1728;-2772;1224;11149
689267;2;19;2;1365;-1311;2944;-1775;-2330;1854;10216
689277;2;19;2;1365;-1010;2785;-1609;-1195;2409;9172
689287;2;19;2;1365;-1297;3227;-1401;-765;2483;7794
689297;2;19;2;1365;-1307;3077;-1194;-260;2184;7226
689307;2;19;2;1365;-1346;2896;-1081;795;1688;7050
689317;2;19;2;1365;-1468;2669;-1145;1778;991;7352
689327;2;19;2;1365;-1652;2495;-1405;2138;267;7827
689337;2;19;2;1365;-1761;2348;-1722;1831;-159;8025
689347;2;19;2;1365;-1645;2160;-2147;910;-33;7874
689357;2;19;2;1365;-1366;2226;-2460;-589;957;7248
689367;2;19;2;1365;-1013;2341;-2473;-2722;2392;6476
689377;2;19;2;1365;-688;2613;-2036;-4575;3341;5887
689387;2;19;2;1365;-296;2848;-1604;-5889;3360;5745
689397;2;19;2;1365;4;3125;-1185;-6239;2872;5706
689407;2;19;2;1365;366;3181;-984;-5446;2254;5601
689417;2;19;2;1365;652;3246;-887;-3676;1758;5175
689427;2;19;2;1366;847;3375;-1033;-1416;1417;4634
689437;2;19;2;1366;987;3506;-1254;473;1735;4110
689447;2;19;2;1366;979;3625;-1216;1817;2113;3713
689457;2;19;2;1366;936;3780;-1090;2690;1949;3574
689467;2;19;2;1366;908;4015;-1018;2837;1144;3674
689477;2;19;2;1366;831;4330;-995;2445;92;3628
689487;2;19;2;1366;740;4589;-1152;2216;-943;3459
689497;2;19;2;1366;750;4700;-1620;2653;-1294;3168
689507;2;19;2;1366;737;4709;-1893;3654;-817;2857
689517;2;19;2;1366;639;4666;-1934;5262;-255;2617
689527;2;19;2;1366;716;4429;-2044;6789;-144;2572
689537;2;19;2;1366;764;4187;-2019;7645;-459;2572
689547;2;19;2;1366;706;3882;-1958;7544;-1577;2641
689557;2;19;2;1366;577;3601;-1929;6591;-3024;2654
689567;2;19;2;1366;457;3492;-1952;5277;-4446;2947
689577;2;19;2;1366;351;3357;-2115;4394;-5426;3471
689587;2;19;2;1366;315;3230;-2269;3925;-5778;3956
689597;2;19;2;1366;183;3174;-2374;3719;-5701;4247
689607;2;19;2;1366;54;3230;-2521;3884;-5234;4262
689617;2;19;2;1366;-96;3394;-2809;4142;-3758;4108
689627;2;19;2;1366;-131;3389;-2796;4699;-1837;3919
689637;2;19;2;1366;-24;3299;-2758;5509;-200;3670
689647;2;19;2;1366;110;3373;-2846;6145;1020;3604
689657;2;19;2;1366;225;3423;-2910;6142;1743;3807
689667;2;19;2;1366;274;3483;-2932;5505;2042;3986
689677;2;19;2;1366;384;3553;-3067;4631;1927;4129
689687;2;19;2;1366;517;3495;-3196;3957;1643;4206
689697;2;19;2;1366;581;3487;-3200;3550;1265;4117
689707;2;19;2;1366;505;3833;-2970;3366;548;4079
689717;2;19;2;1366;725;3708;-3321;3617;153;4026
689727;2;19;2;1366;630;4045;-3332;4205;312;3768
689737;2;19;2;1366;419;4381;-3291;4588;232;3937
689747;2;19;2;1366;309;4511;-3392;4409;182;3913
689757;2;19;2;1366;345;4580;-3578;3966;5;3258
689767;2;19;2;1366;277;4845;-4000;3539;191;2456
689777;2;19;2;1366;276;4968;-4329;3443;522;1985
689787;2;19;2;1366;498;4827;-4550;3741;882;1752
689797;2;19;2;1366;797;4365;-4672;3967;1125;1371
689807;2;19;2;1366;1091;3929;-4824;3758;1373;359
689817;2;19;2;1366;1240;3769;-4865;3166;1655;-788
689827;2;19;2;1366;1300;3697;-4462;2409;1475;-1405
689837;2;19;2;1366;1184;3555;-3779;1598;482;-1484
689847;2;19;2;1366;864;3438;-3051;740;-1434;-1215
689857;2;19;2;1366;497;3435;-2605;-86;-3809;-711
689867;2;19;2;1366;8;3679;-2376;-778;-5710;138
689877;2;19;2;1366;-679;4115;-2116;-1121;-7233;1566
689887;2;19;2;1366;-861;3574;-2358;-499;-8132;3049
689897;2;19;2;1366;-804;2686;-3007;1485;-7401;2704
689907;2;19;2;1366;-897;2642;-3603;3537;-5518;1709
689917;2;19;2;1366;-769;2915;-4097;4232;-3688;1291
689927;2;19;2;1367;-409;3031;-4122;3111;-2539;1397
689937;2;19;2;1367;60;3062;-3837;957;-2447;1855
689947;2;19;2;1367;479;2901;-3418;-1320;-3112;2374
689957;2;19;2;1367;733;2629;-2983;-3062;-4283;2618
689967;2;19;2;1367;835;2359;-2634;-4196;-5511;2455
689977;2;19;2;1367;757;2387;-2344;-5092;-6531;1936
689987;2;19;2;1367;409;2750;-1954;-6178;-7349;1670
689997;2;19;2;1367;91;2926;-1489;-6944;-8217;1945
690007;2;19;2;1367;-290;2913;-1370;-6830;-8708;2133
690017;2;19;2;1367;-598;2828;-1289;-5683;-8463;2139
690027;2;19;2;1367;-806;2794;-1301;-3581;-7905;2122
690037;2;19;2;1367;-1050;2794;-1343;-1320;-7272;2335
690047;2;19;2;1367;-1271;2763;-1514;408;-6899;2861
690057;2;19;2;1367;-1208;2630;-1920;1359;-6410;3396
690067;2;19;2;1367;-1085;2537;-2269;1674;-5815;3797
690077;2;19;2;1367;-859;2451;-2577;1714;-5347;4026
690087;2;19;2;1367;-532;2515;-3001;1493;-4963;3941
690097;2;19;2;1367;-337;2732;-3169;841;-4757;3801
690107;2;19;2;1367;-403;2850;-3247;87;-4996;4043
690117;2;19;2;1367;-561;2640;-3475;-295;-5145;4549
690127;2;19;2;1367;-656;2176;-3628;-189;-4847;5068
690137;2;19;2;1367;-870;1797;-3701;-161;-4363;5637
690147;2;19;2;1367;-944;1489;-3827;-760;-3808;6355
690157;2;19;2;1367;-843;1400;-3904;-2269;-3257;6923
690167;2;19;2;1367;-657;1427;-3848;-4651;-2620;7318
690177;2;19;2;1367;-407;1511;-3706;-7135;-1816;7338
690187;2;19;2;1367;0;1775;-3269;-8848;-1116;6816
690197;2;19;2;1367;402;2171;-2888;-9314;-608;5852
690207;2;19;2;1367;579;2735;-2626;-8919;-84;4554
690217;2;19;2;1367;384;3208;-2239;-7967;374;3408
690227;2;19;2;1367;146;3342;-1775;-5404;393;2843
690237;2;19;2;1367;70;3198;-1688;-1451;-61;2828
690247;2;19;2;1367;15;3072;-2238;2290;-645;3024
690257;2;19;2;1367;122;2883;-3005;4124;-709;3120
690267;2;19;2;1367;289;2547;-3717;3984;-267;2685
690277;2;19;2;1367;255;2377;-4131;2793;603;1750
690287;2;19;2;1367;187;2127;-4208;1749;1332;673
690297;2;19;2;1367;100;2108;-4399;1328;1946;-266
690307;2;19;2;1367;-37;2237;-4531;1208;2379;-597
690317;2;19;2;1367;-12;2164;-4556;1037;2426;-451
690327;2;19;2;1367;75;2056;-4454;308;1990;-45
690337;2;19;2;1367;356;1937;-4482;-722;1353;210
690347;2;19;2;1367;573;2058;-4458;-2336;701;243
690357;2;19;2;1367;707;2150;-4190;-3988;-56;309
690367;2;19;2;1367;861;2137;-3952;-4804;-611;259
690377;2;19;2;1367;718;2338;-3817;-4676;-710;326
690387;2;19;2;1367;573;2361;-3741;-4205;-356;641
690397;2;19;2;1367;611;1895;-3637;-3620;468;796
690407;2;19;2;1367;658;1536;-3392;-3288;1400;284
690417;2;19;2;1367;576;1683;-3039;-3892;1745;-177
690427;2;19;2;1368;538;1981;-2693;-5533;1471;-189
690437;2;19;2;1368;478;2248;-2303;-7386;1030;102
690447;2;19;2;1368;416;2510;-1889;-8633;802;540
690457;2;19;2;1368;369;2818;-1525;-9030;956;973
690467;2;19;2;1368;196;3244;-1370;-8805;1666;1412
690477;2;19;2;1368;229;3406;-1302;-7860;3090;1852
690487;2;19;2;1368;597;3238;-1092;-6014;4691;1820
690497;2;19;2;1368;959;2993;-1130;-3663;6072;1095
690507;2;19;2;1368;1201;2779;-1204;-1787;7070;-116
690517;2;19;2;1368;1226;2943;-1146;-1166;7274;-1429
690527;2;19;2;1368;974;3406;-1073;-1844;6211;-1781
690537;2;19;2;1368;668;3855;-1106;-3044;4243;-895
690547;2;19;2;1368;488;4204;-1462;-4024;1903;1056
690557;2;19;2;1368;744;4206;-2156;-5407;429;3010
690567;2;19;2;1368;1420;3909;-2693;-8251;820;3540
690577;2;19;2;1368;2127;3797;-2424;-11955;2776;2166
690587;2;19;2;1368;2425;3906;-1378;-14827;4970;-102
690597;2;19;2;1368;2463;4206;27;-15384;6328;-2534
690607;2;19;2;1368;2267;4590;1425;-13218;6311;-4330
690617;2;19;2;1368;1923;4979;2294;-8742;4434;-4682
690627;2;19;2;1368;1604;4921;2204;-2790;1609;-4118
690637;2;19;2;1368;1270;4609;1464;3306;-905;-3554
690647;2;19;2;1368;965;4102;420;7839;-2757;-3105
690657;2;19;2;1368;739;3432;-629;9990;-3897;-2843
690667;2;19;2;1368;592;2788;-1494;9945;-4308;-2836
690677;2;19;2;1368;431;2348;-1994;8557;-4370;-2955
690687;2;19;2;1368;271;2117;-2207;6451;-4312;-3002
690697;2;19;2;1368;30;2090;-2193;4142;-4178;-2685
690707;2;19;2;1368;-228;2031;-1874;2009;-4090;-1816
690717;2;19;2;1368;-398;2017;-1337;169;-4220;-964
690727;2;19;2;1368;-427;2060;-931;-1244;-4390;-251
690737;2;19;2;1368;-496;2198;-743;-1750;-4055;103
690747;2;19;2;1368;-454;2543;-638;-1584;-3285;337
690757;2;19;2;1368;-333;2929;-730;-955;-1982;259
690767;2;19;2;1368;-180;3317;-760;-54;-262;45
690777;2;19;2;1368;-26;3660;-497;1109;950;113
690787;2;19;2;1368;214;3806;-255;2213;977;651
690797;2;19;2;1368;430;3981;-312;2465;266;1108
690807;2;19;2;1368;498;4361;-399;1848;-517;1359
690817;2;19;2;1368;498;4807;-601;1086;-1186;1628
690827;2;19;2;1368;548;5253;-889;743;-1338;1698
690837;2;19;2;1368;628;5494;-1074;899;-1447;1781
690847;2;19;2;1368;856;5465;-1434;1154;-1663;1812
690857;2;19;2;1368;1385;5073;-1740;1195;-1682;1392
690867;2;19;2;1368;1607;4977;-2016;859;-1329;610
690877;2;19;2;1368;1193;5119;-2082;438;-1349;415
690887;2;19;2;1368;667;5009;-2249;384;-1754;1033
690897;2;19;2;1368;296;5060;-2425;385;-2186;1817
690907;2;19;2;1368;300;4930;-2689;-202;-2206;2646
690917;2;19;2;1368;831;4331;-2692;-945;-1485;2502
690927;2;19;2;1369;1157;4240;-2338;-1604;-175;1105
690937;2;19;2;1369;979;4645;-1920;-1529;-42;713
690947;2;19;2;1369;894;4762;-1802;-700;-725;936
690957;2;19;2;1369;783;5019;-1819;670;-1677;1245
690967;2;19;2;1369;690;5213;-2107;2201;-2608;1770
690977;2;19;2;1369;700;5120;-2554;3760;-3035;2215
690987;2;19;2;1369;788;5065;-2799;4485;-3119;2397
690997;2;19;2;1369;1173;4810;-2975;4250;-3142;2471
691007;2;19;2;1369;1641;4520;-2928;2946;-2665;1938
691017;2;19;2;1369;1772;4580;-2289;1357;-1993;948
691027;2;19;2;1369;1770;4766;-1519;629;-1853;83
691037;2;19;2;1369;1496;5095;-1040;1216;-2172;-392
691047;2;19;2;1369;1298;5298;-893;2650;-2865;-372
691057;2;19;2;1369;1224;5171;-1269;4202;-3161;-467
691067;2;19;2;1369;1123;4920;-1733;5371;-2720;-962
691077;2;19;2;1369;1017;4589;-2135;5933;-1888;-1622
691087;2;19;2;1369;907;4294;-2220;5733;-1083;-2287
691097;2;19;2;1369;721;4046;-2074;4925;-755;-2678
691107;2;19;2;1369;424;3783;-1917;4002;-1073;-2677
691117;2;19;2;1369;106;3547;-1847;3400;-1589;-2444
691127;2;19;2;1369;-173;3395;-1760;3237;-2227;-1831
691137;2;19;2;1369;-295;3265;-1838;3352;-3203;-833
691147;2;19;2;1369;-463;3122;-2189;3330;-4029;266
691157;2;19;2;1369;-586;2790;-2648;2969;-4190;1118
691167;2;19;2;1369;-741;2612;-3100;2262;-3450;1598
691177;2;19;2;1369;-888;2586;-3282;1294;-2355;1977
691187;2;19;2;1369;-854;2479;-3374;277;-1371;2281
691197;2;19;2;1369;-559;2442;-3464;-1028;-398;2322
691207;2;19;2;1369;-223;2603;-3344;-2784;439;2164
691217;2;19;2;1369;49;2833;-2901;-4669;809;1938
691227;2;19;2;1369;307;3014;-2260;-5950;652;1545
691237;2;19;2;1369;397;3224;-1683;-5975;57;990
691247;2;19;2;1369;405;3377;-1471;-4406;-711;548
691257;2;19;2;1369;316;3342;-1469;-1508;-1390;370
691267;2;19;2;1369;200;3048;-1810;1606;-2045;438
691277;2;19;2;1369;13;2674;-2551;3494;-2357;514
691287;2;19;2;1369;-203;2308;-3229;3502;-1977;480
691297;2;19;2;1369;-385;2020;-3568;1974;-1356;436
691307;2;19;2;1369;-447;1926;-3695;-474;-574;307
691317;2;19;2;1369;-405;1977;-3541;-3149;303;168
691327;2;19;2;1369;-171;2117;-3121;-5359;1164;-106
691337;2;19;2;1369;-96;2448;-2409;-6803;1816;-432
691347;2;19;2;1369;-126;2796;-1611;-7149;1881;-509
691357;2;19;2;1369;-170;3041;-990;-6343;1429;-324
691367;2;19;2;1369;-261;3190;-613;-4786;715;59
691377;2;19;2;1369;-301;3264;-458;-3022;-83;508
691387;2;19;2;1369;-287;3315;-564;-1450;-611;853
691397;2;19;2;1369;-210;3300;-724;-152;-727;1060
691407;2;19;2;1369;-69;3179;-904;987;-493;910
691417;2;19;2;1369;64;3152;-1118;2070;-77;369
691427;2;19;2;1370;243;3089;-1455;3143;455;-362
691437;2;19;2;1370;440;2998;-1747;4207;967;-1060
691447;2;19;2;1370;523;2876;-1897;5052;1205;-1529
691457;2;19;2;1370;453;2741;-1956;5273;969;-1672
691467;2;19;2;1370;317;2598;-1989;4893;260;-1496
691477;2;19;2;1370;173;2457;-2239;4154;-250;-1269
691487;2;19;2;1370;-38;2416;-2401;3373;-145;-1068
691497;2;19;2;1370;-203;2415;-2399;2703;308;-777
691507;2;19;2;1370;-258;2484;-2268;1966;729;-307
691517;2;19;2;1370;-131;2569;-2182;1019;984;218
691527;2;19;2;1370;68;2533;-2217;140;1231;579
691537;2;19;2;1370;140;2606;-2261;-483;1761;589
691547;2;19;2;1370;154;2790;-2040;-1089;2279;590
691557;2;19;2;1370;184;2968;-1752;-1851;2501;645
691567;2;19;2;1370;69;3238;-1340;-2615;2491;838
691577;2;19;2;1370;5;3439;-990;-2990;2180;1158
691587;2;19;2;1370;20;3594;-1056;-2753;2225;1165
691597;2;19;2;1370;-45;3757;-1056;-1998;2895;865
691607;2;19;2;1370;0;3919;-954;-869;3520;645
691617;2;19;2;1370;160;4002;-908;317;3574;754
691627;2;19;2;1370;338;4014;-1043;1088;3130;859
691637;2;19;2;1370;372;3912;-1344;1451;2325;898
691647;2;19;2;1370;386;3723;-1886;1836;1878;735
691657;2;19;2;1370;256;3652;-2339;2178;1847;490
691667;2;19;2;1370;252;3499;-2533;2280;1752;435
691677;2;19;2;1370;266;3250;-2656;1943;1412;471
691687;2;19;2;1370;293;3085;-2932;1009;1295;276
691697;2;19;2;1370;293;3170;-3109;-73;1708;-186
691707;2;19;2;1370;328;3304;-3010;-480;2068;-637
691717;2;19;2;1370;453;3376;-2902;-231;2113;-1075
691727;2;19;2;1370;553;3397;-2861;271;2035;-1357
691737;2;19;2;1370;684;3400;-2960;609;2024;-1549
691747;2;19;2;1370;636;3593;-3002;349;2421;-1844
691757;2;19;2;1370;550;3851;-2703;101;2692;-2175
691767;2;19;2;1370;585;4207;-2317;714;2563;-2622
691777;2;19;2;1370;633;4441;-2183;2283;2142;-2785
691787;2;19;2;1370;605;4463;-2323;4863;1656;-2738
691797;2;19;2;1370;521;4242;-2614;7429;1311;-2530
691807;2;19;2;1370;494;3800;-3127;8945;1131;-2207
691817;2;19;2;1370;629;3427;-3659;9126;1201;-1976
691827;2;19;2;1370;822;3166;-4030;8263;1260;-1650
691837;2;19;2;1370;1150;2745;-4306;6907;1269;-1325
691847;2;19;2;1370;1398;2552;-4529;5070;1711;-1525
691857;2;19;2;1370;1422;2637;-4343;3191;2239;-1818
691867;2;19;2;1370;1406;2719;-4022;1861;2534;-1874
691877;2;19;2;1370;1325;2739;-3584;1209;2510;-1669
691887;2;19;2;1370;1302;2777;-3377;967;2175;-1190
691897;2;19;2;1370;1409;2734;-3317;638;1959;-537
691907;2;19;2;1370;1676;2544;-3371;-319;2364;-146
691917;2;19;2;1370;1939;2490;-3107;-2121;3555;-368
