timestamp;subject_id;activity;label;seq;ax;ay;az;gx;gy;gz
838427;2;19;2;1664;-813;3968;-420;-384;-341;171
838437;2;19;2;1664;-781;3983;-378;-373;-310;152
838447;2;19;2;1664;-750;3978;-398;-312;-316;150
838457;2;19;2;1664;-735;3967;-416;-237;-359;146
838467;2;19;2;1664;-784;3996;-469;-158;-370;153
838477;2;19;2;1664;-879;3971;-631;-209;-360;192
838487;2;19;2;1664;-735;3924;-524;-245;84;-86
838497;2;19;2;1664;-764;4077;-418;-492;58;63
838507;2;19;2;1664;-786;4039;-456;-434;21;32
838517;2;19;2;1664;-834;4066;-554;-454;117;131
838527;2;19;2;1664;-813;4119;-717;-722;339;209
838537;2;19;2;1664;-813;3923;-553;-1214;530;244
838547;2;19;2;1664;-833;3965;-422;-1433;347;148
838557;2;19;2;1664;-820;4060;-539;-1516;282;273
838567;2;19;2;1664;-883;4039;-507;-1835;317;432
838577;2;19;2;1664;-873;3989;-364;-2141;246;512
838587;2;19;2;1664;-889;4045;-445;-2158;285;561
838597;2;19;2;1664;-863;4067;-342;-2375;377;719
838607;2;19;2;1664;-806;3958;-225;-2394;346;780
838617;2;19;2;1664;-766;3962;-188;-2322;301;734
838627;2;19;2;1664;-705;3974;-223;-2005;359;644
838637;2;19;2;1664;-731;3972;-114;-1815;377;537
838647;2;19;2;1664;-732;3912;-70;-1439;228;431
838657;2;19;2;1664;-750;3946;-80;-982;38;320
838667;2;19;2;1664;-786;4003;-256;-938;-50;352
838677;2;19;2;1664;-797;4036;-276;-1301;-49;466
838687;2;19;2;1664;-799;4092;-199;-1618;-109;652
838697;2;19;2;1664;-782;3970;-286;-1940;-142;714
838707;2;19;2;1664;-781;4030;-145;-2126;-221;728
838717;2;19;2;1664;-689;4029;-72;-2216;-306;816
838727;2;19;2;1664;-601;3989;21;-2319;-397;770
838737;2;19;2;1664;-556;3965;25;-1967;-390;590
838747;2;19;2;1664;-526;3989;-15;-1552;-289;423
838757;2;19;2;1664;-543;4071;-27;-1161;-252;227
838767;2;19;2;1664;-648;4061;-170;-1121;-315;195
838777;2;19;2;1664;-729;4081;-267;-1494;-358;243
838787;2;19;2;1664;-737;4093;-284;-2119;-310;356
838797;2;19;2;1664;-752;4088;-332;-2869;-235;496
838807;2;19;2;1664;-702;4057;-238;-3580;-154;614
838817;2;19;2;1664;-672;4038;-153;-4073;-135;640
838827;2;19;2;1664;-579;4014;115;-4373;-163;615
838837;2;19;2;1664;-599;4027;185;-4421;-305;617
838847;2;19;2;1664;-568;3985;351;-4486;-487;597
838857;2;19;2;1664;-561;4002;466;-4207;-578;486
838867;2;19;2;1664;-620;4062;388;-3837;-506;421
838877;2;19;2;1664;-621;4045;451;-3713;-418;399
838887;2;19;2;1664;-654;4021;593;-3354;-469;338
838897;2;19;2;1664;-610;3963;640;-2993;-681;263
838907;2;19;2;1664;-549;3959;646;-2716;-1008;114
838917;2;19;2;1664;-587;4064;537;-2552;-1188;170
838927;2;19;2;1665;-553;3983;528;-2413;-1033;163
838937;2;19;2;1665;-463;3916;650;-2145;-857;-41
838947;2;19;2;1665;-477;3968;640;-1734;-749;-247
838957;2;19;2;1665;-433;4049;530;-1334;-492;-337
838967;2;19;2;1665;-452;4052;524;-1112;-218;-369
838977;2;19;2;1665;-499;4016;541;-1020;-101;-397
838987;2;19;2;1665;-514;3980;552;-899;7;-438
838997;2;19;2;1665;-552;4034;468;-754;179;-416
839007;2;19;2;1665;-556;4007;478;-632;390;-356
839017;2;19;2;1665;-563;3965;503;-521;562;-384
839027;2;19;2;1665;-532;3953;485;-359;700;-410
839037;2;19;2;1665;-516;3947;504;-229;878;-435
839047;2;19;2;1665;-517;4005;471;-117;1100;-427
839057;2;19;2;1665;-520;3999;510;26;1289;-439
839067;2;19;2;1665;-521;4035;527;183;1456;-418
839077;2;19;2;1665;-521;4031;506;245;1608;-367
839087;2;19;2;1665;-531;4040;465;253;1759;-367
839097;2;19;2;1665;-648;4087;445;271;1819;-271
839107;2;19;2;1665;-681;4093;419;354;1852;-156
839117;2;19;2;1665;-699;4088;329;343;1980;-85
839127;2;19;2;1665;-668;4050;283;265;2192;-49
839137;2;19;2;1665;-664;4017;314;152;2447;-74
839147;2;19;2;1665;-637;4071;354;55;2618;-23
839157;2;19;2;1665;-578;4068;423;9;2709;56
839167;2;19;2;1665;-546;4019;459;36;2764;63
839177;2;19;2;1665;-551;4014;417;93;2813;74
839187;2;19;2;1665;-544;3998;423;184;2920;63
839197;2;19;2;1665;-496;4003;415;260;3066;85
839207;2;19;2;1665;-482;4003;462;231;3140;118
839217;2;19;2;1665;-513;4035;499;170;3177;128
839227;2;19;2;1665;-540;4069;550;67;3202;130
839237;2;19;2;1665;-587;4075;561;100;3058;246
839247;2;19;2;1665;-624;4103;499;143;3028;379
839257;2;19;2;1665;-654;4077;433;117;3006;519
839267;2;19;2;1665;-618;4060;382;167;3018;616
839277;2;19;2;1665;-517;4033;242;180;3113;621
839287;2;19;2;1665;-445;4063;224;103;3265;542
839297;2;19;2;1665;-413;4046;276;91;3286;472
839307;2;19;2;1665;-333;3996;238;106;3214;343
839317;2;19;2;1665;-354;3981;171;76;3182;173
839327;2;19;2;1665;-380;3997;136;-71;3194;-7
839337;2;19;2;1665;-396;4014;145;-417;3166;-70
839347;2;19;2;1665;-391;4005;234;-839;3185;-148
839357;2;19;2;1665;-400;4022;327;-1114;3227;-257
839367;2;19;2;1665;-382;4047;418;-1389;3063;-203
839377;2;19;2;1665;-450;3992;378;-1601;3016;-119
839387;2;19;2;1665;-530;4032;379;-1485;3157;-202
839397;2;19;2;1665;-641;4038;294;-1232;3376;-320
839407;2;19;2;1665;-648;4011;199;-1135;3569;-376
839417;2;19;2;1665;-590;3965;208;-1215;3834;-482
839427;2;19;2;1666;-636;3989;247;-1202;3837;-449
839437;2;19;2;1666;-690;3962;228;-1233;3841;-414
839447;2;19;2;1666;-708;3991;258;-1312;3736;-335
839457;2;19;2;1666;-823;4129;236;-1266;3684;-272
839467;2;19;2;1666;-838;4126;181;-1107;3966;-268
839477;2;19;2;1666;-860;4123;200;-1153;4049;-208
839487;2;19;2;1666;-835;4083;212;-1060;3983;-38
839497;2;19;2;1666;-803;4068;158;-817;3995;33
839507;2;19;2;1666;-723;4041;10;-685;4047;78
839517;2;19;2;1666;-733;4104;10;-652;4141;176
839527;2;19;2;1666;-749;4048;9;-558;4164;193
839537;2;19;2;1666;-738;4099;6;-531;4177;165
839547;2;19;2;1666;-732;4115;-4;-494;4199;203
839557;2;19;2;1666;-739;4102;-15;-521;4143;241
839567;2;19;2;1666;-719;4096;-10;-549;4040;282
839577;2;19;2;1666;-679;4069;22;-568;3949;302
839587;2;19;2;1666;-640;4004;30;-609;3914;275
839597;2;19;2;1666;-589;3886;-29;-659;3941;245
839607;2;19;2;1666;-524;3821;-79;-821;3919;128
839617;2;19;2;1666;-556;3741;-73;-858;3901;-19
839627;2;19;2;1666;-593;3683;-130;-770;3910;-132
839637;2;19;2;1666;-637;3702;-96;-673;3983;-268
839647;2;19;2;1666;-660;3744;-101;-771;3966;-320
839657;2;19;2;1666;-717;3763;-229;-799;3967;-335
839667;2;19;2;1666;-892;3864;-264;-676;4137;-359
839677;2;19;2;1666;-1131;4024;-185;-382;4285;-369
839687;2;19;2;1666;-1336;4202;-192;-59;4335;-287
839697;2;19;2;1666;-1478;4336;-296;143;4403;-29
839707;2;19;2;1666;-1509;4347;-497;204;4468;216
839717;2;19;2;1666;-1487;4403;-631;279;4700;381
839727;2;19;2;1666;-1465;4515;-640;480;4956;516
839737;2;19;2;1666;-1430;4505;-671;748;5117;712
839747;2;19;2;1666;-1294;4438;-703;953;5259;718
839757;2;19;2;1666;-1211;4435;-734;769;5463;697
839767;2;19;2;1666;-1021;4407;-644;9;5591;687
839777;2;19;2;1666;-1096;4435;-354;-938;5484;711
839787;2;19;2;1666;-1135;4364;-88;-1648;5310;663
839797;2;19;2;1666;-1279;4521;171;-1660;5278;454
839807;2;19;2;1666;-1568;4528;410;-798;5323;390
839817;2;19;2;1666;-1460;4451;368;26;5377;137
839827;2;19;2;1666;-1340;4242;196;-195;5211;-37
839837;2;19;2;1666;-923;3872;292;-1700;4785;-28
839847;2;19;2;1666;-489;3562;933;-2514;4271;-25
839857;2;19;2;1666;-255;3548;1608;-1555;3313;-261
839867;2;19;2;1666;-281;3456;1556;412;2289;-435
839877;2;19;2;1666;-354;3288;1314;1761;1642;-460
839887;2;19;2;1666;-550;3387;1223;2279;1468;-451
839897;2;19;2;1666;-715;3584;1201;2364;1530;-534
839907;2;19;2;1666;-903;3742;1271;2115;1551;-618
839917;2;19;2;1666;-1085;3965;1317;1818;1410;-420
839927;2;19;2;1667;-1072;4083;1209;1655;1364;-102
839937;2;19;2;1667;-1054;4208;1052;1661;1641;123
839947;2;19;2;1667;-941;4196;789;1773;2098;327
839957;2;19;2;1667;-1037;4167;316;1786;2688;393
839967;2;19;2;1667;-995;4026;-157;1601;3331;381
839977;2;19;2;1667;-767;3952;-482;902;4083;110
839987;2;19;2;1667;-480;3964;-584;-375;4659;-55
839997;2;19;2;1667;-498;4069;-516;-2149;5073;-385
840007;2;19;2;1667;-545;4123;-182;-3641;5555;-518
840017;2;19;2;1667;-568;4095;266;-4231;6043;-629
840027;2;19;2;1667;-615;4077;650;-3922;6306;-671
840037;2;19;2;1667;-636;3979;794;-3122;6433;-820
840047;2;19;2;1667;-827;3929;817;-2410;6544;-997
840057;2;19;2;1667;-1141;3952;808;-1968;6412;-886
840067;2;19;2;1667;-1323;3921;730;-1735;6080;-588
840077;2;19;2;1667;-1424;3836;686;-1646;5823;-344
840087;2;19;2;1667;-1360;3740;600;-1591;5670;-202
840097;2;19;2;1667;-1286;3699;552;-1595;5613;-113
840107;2;19;2;1667;-1177;3682;586;-1666;5478;21
840117;2;19;2;1667;-1075;3736;615;-1725;5314;95
840127;2;19;2;1667;-1022;3741;593;-1587;5174;76
840137;2;19;2;1667;-959;3791;622;-1304;4994;18
840147;2;19;2;1667;-910;3835;624;-1019;4754;-45
840157;2;19;2;1667;-890;3871;559;-898;4537;-136
840167;2;19;2;1667;-866;3870;448;-1104;4483;-301
840177;2;19;2;1667;-916;3909;399;-1264;4425;-340
840187;2;19;2;1667;-979;3948;268;-1102;4345;-342
840197;2;19;2;1667;-1027;3929;168;-763;4195;-338
840207;2;19;2;1667;-1001;3941;105;-661;3979;-296
840217;2;19;2;1667;-928;3852;3;-851;3963;-298
840227;2;19;2;1667;-904;3852;-5;-1041;4073;-333
840237;2;19;2;1667;-917;3866;67;-1065;4088;-257
840247;2;19;2;1667;-903;3867;153;-986;3946;-146
840257;2;19;2;1667;-890;3943;240;-843;3770;-21
840267;2;19;2;1667;-850;3928;257;-724;3835;18
840277;2;19;2;1667;-874;3941;207;-729;4052;-23
840287;2;19;2;1667;-961;3943;165;-732;4177;-11
840297;2;19;2;1667;-1024;3989;249;-650;4215;81
840307;2;19;2;1667;-1034;4023;312;-626;4210;202
840317;2;19;2;1667;-975;3980;249;-591;4323;271
840327;2;19;2;1667;-913;3917;227;-362;4472;234
840337;2;19;2;1667;-881;3923;186;-160;4431;208
840347;2;19;2;1667;-873;3882;20;-185;4324;204
840357;2;19;2;1667;-851;3896;8;-487;4352;101
840367;2;19;2;1667;-866;3918;16;-856;4464;10
840377;2;19;2;1667;-873;3907;135;-1156;4605;-114
840387;2;19;2;1667;-980;3955;284;-1241;4590;-163
840397;2;19;2;1667;-1077;3954;279;-1207;4418;-117
840407;2;19;2;1667;-1125;3957;290;-1245;4305;-63
840417;2;19;2;1667;-1141;3906;258;-1419;4269;10
840427;2;19;2;1668;-1146;3894;281;-1624;4299;34
840437;2;19;2;1668;-1104;3905;385;-1758;4262;88
840447;2;19;2;1668;-1096;3911;487;-1721;4054;178
840457;2;19;2;1668;-1075;3959;588;-1574;3751;290
840467;2;19;2;1668;-1054;3980;613;-1460;3562;357
840477;2;19;2;1668;-1034;3973;568;-1477;3528;346
840487;2;19;2;1668;-1028;3969;542;-1584;3494;298
840497;2;19;2;1668;-1101;3935;545;-1665;3319;304
840507;2;19;2;1668;-1083;3879;464;-1748;3165;254
840517;2;19;2;1668;-1096;3831;375;-1981;3066;113
840527;2;19;2;1668;-1148;3834;386;-2270;2892;88
840537;2;19;2;1668;-1197;3830;317;-2518;2763;36
840547;2;19;2;1668;-1167;3813;295;-2765;2858;-29
840557;2;19;2;1668;-1132;3908;510;-2704;2995;-177
840567;2;19;2;1668;-1072;4068;628;-2356;2917;-134
840577;2;19;2;1668;-946;4088;636;-1927;2717;-63
840587;2;19;2;1668;-788;4062;674;-1247;2451;-89
840597;2;19;2;1668;-797;4258;604;-320;2010;-147
840607;2;19;2;1668;-689;4278;327;306;1453;26
840617;2;19;2;1668;-502;4252;61;451;1026;39
840627;2;19;2;1668;-344;4233;-259;255;694;-44
840637;2;19;2;1668;-243;4199;-632;-307;450;-116
840647;2;19;2;1668;-267;4180;-799;-1097;391;-306
840657;2;19;2;1668;-251;4160;-731;-2002;258;-412
840667;2;19;2;1668;-352;4127;-582;-2796;416;-538
840677;2;19;2;1668;-467;4167;-333;-3286;981;-692
840687;2;19;2;1668;-676;4308;60;-2943;1634;-893
840697;2;19;2;1668;-846;4495;177;-1796;2178;-770
840707;2;19;2;1668;-924;4370;79;-885;2497;-519
840717;2;19;2;1668;-1019;4402;-139;-214;2929;-434
840727;2;19;2;1668;-1115;4297;-443;-125;3522;-329
840737;2;19;2;1668;-1090;4435;-553;-603;3918;-89
840747;2;19;2;1668;-888;4347;-648;-1210;4034;445
840757;2;19;2;1668;-593;4069;-652;-1937;3909;746
840767;2;19;2;1668;-375;3920;-662;-2408;3985;763
840777;2;19;2;1668;-282;3835;-532;-2692;4210;615
840787;2;19;2;1668;-287;3819;-356;-2939;4366;403
840797;2;19;2;1668;-332;3772;-68;-2949;4396;261
840807;2;19;2;1668;-440;3831;379;-2337;4383;136
840817;2;19;2;1668;-560;3863;523;-1138;4282;95
840827;2;19;2;1668;-740;3855;369;-352;4229;162
840837;2;19;2;1668;-886;3840;312;-299;4182;462
840847;2;19;2;1668;-851;3843;233;-376;4150;741
840857;2;19;2;1668;-803;3874;299;-41;4246;876
840867;2;19;2;1668;-736;3973;401;484;4224;1003
840877;2;19;2;1668;-595;4134;459;999;4089;1127
840887;2;19;2;1668;-405;4229;476;1453;3984;1120
840897;2;19;2;1668;-235;4257;368;1788;3976;1012
840907;2;19;2;1668;-115;4247;192;1947;3961;781
840917;2;19;2;1668;-34;4142;9;2105;3834;528
840927;2;19;2;1669;-107;4099;-324;1996;3684;306
840937;2;19;2;1669;-248;4033;-559;1293;3520;159
840947;2;19;2;1669;-428;3965;-518;311;3329;139
840957;2;19;2;1669;-471;3932;-327;-411;3235;111
840967;2;19;2;1669;-479;3981;-9;-694;3230;85
840977;2;19;2;1669;-435;3989;257;-706;3225;75
840987;2;19;2;1669;-376;4008;449;-572;3225;79
840997;2;19;2;1669;-291;4012;487;-316;3237;59
841007;2;19;2;1669;-301;4034;413;0;3235;35
841017;2;19;2;1669;-305;4079;304;206;3214;34
841027;2;19;2;1669;-357;4122;194;227;3075;56
841037;2;19;2;1669;-325;4108;43;109;2955;44
841047;2;19;2;1669;-263;4103;-126;-132;2939;-38
841057;2;19;2;1669;-246;4047;-204;-334;3005;-106
841067;2;19;2;1669;-207;4069;-286;-497;3048;-231
841077;2;19;2;1669;-219;4122;-268;-735;2942;-274
841087;2;19;2;1669;-158;4122;-224;-1014;2832;-285
841097;2;19;2;1669;-99;4107;-121;-1304;2780;-332
841107;2;19;2;1669;-54;4078;-32;-1542;2825;-426
841117;2;19;2;1669;-36;4074;21;-1625;2871;-512
841127;2;19;2;1669;-112;4092;134;-1635;2837;-532
841137;2;19;2;1669;-197;4107;174;-1592;2721;-512
841147;2;19;2;1669;-313;4186;289;-1602;2664;-406
841157;2;19;2;1669;-288;4170;383;-1483;2688;-381
841167;2;19;2;1669;-303;4210;335;-1343;2836;-396
841177;2;19;2;1669;-302;4173;313;-1301;2883;-349
841187;2;19;2;1669;-259;4117;208;-1245;2856;-279
841197;2;19;2;1669;-194;4063;147;-1225;2881;-292
841207;2;19;2;1669;-143;4050;135;-1221;2894;-358
841217;2;19;2;1669;-126;4099;101;-1301;2900;-385
841227;2;19;2;1669;-134;4091;123;-1381;2811;-370
841237;2;19;2;1669;-146;4101;78;-1443;2732;-350
841247;2;19;2;1669;-168;4080;67;-1661;2711;-311
841257;2;19;2;1669;-152;4028;226;-1713;2687;-353
841267;2;19;2;1669;-106;4012;293;-1504;2727;-446
841277;2;19;2;1669;-93;4018;316;-1408;2750;-501
841287;2;19;2;1669;-100;3977;334;-1403;2721;-502
841297;2;19;2;1669;-69;3940;371;-1396;2635;-520
841307;2;19;2;1669;1;3935;424;-1285;2539;-587
841317;2;19;2;1669;10;3964;437;-877;2395;-619
841327;2;19;2;1669;16;3970;407;-298;2138;-642
841337;2;19;2;1669;-160;4153;288;254;1906;-602
841347;2;19;2;1669;-298;4445;279;818;1744;-438
841357;2;19;2;1669;-345;4546;112;1214;1799;-290
841367;2;19;2;1669;-279;4626;-80;1182;2226;-331
841377;2;19;2;1669;-222;4584;-343;874;2717;-479
841387;2;19;2;1669;-194;4496;-552;605;3002;-613
841397;2;19;2;1669;-172;4396;-839;299;2919;-642
841407;2;19;2;1669;-220;4377;-1102;-372;2809;-721
841417;2;19;2;1669;-316;4361;-1009;-1523;2717;-749
841427;2;19;2;1670;-464;4410;-651;-2730;2780;-822
841437;2;19;2;1670;-653;4501;-45;-3483;2768;-683
841447;2;19;2;1670;-770;4520;614;-2998;2537;-424
841457;2;19;2;1670;-885;4411;774;-1762;2220;-218
841467;2;19;2;1670;-994;4301;692;-732;1945;19
841477;2;19;2;1670;-956;4150;419;-250;1878;259
841487;2;19;2;1670;-889;4028;135;-289;1943;483
841497;2;19;2;1670;-710;3877;162;-543;1809;579
841507;2;19;2;1670;-833;3714;-124;-307;1623;431
841517;2;19;2;1670;-751;3703;-416;-328;1419;373
841527;2;19;2;1670;-741;3717;-548;-557;1242;142
841537;2;19;2;1670;-782;3741;-570;-657;1104;-71
841547;2;19;2;1670;-872;3782;-516;-610;1094;-235
841557;2;19;2;1670;-884;3802;-422;-631;1006;-350
841567;2;19;2;1670;-969;3797;-431;-809;931;-379
841577;2;19;2;1670;-987;3747;-385;-1121;923;-382
841587;2;19;2;1670;-1040;3656;-258;-1128;1061;-495
841597;2;19;2;1670;-1021;3771;-71;-957;1267;-638
841607;2;19;2;1670;-1171;3808;167;-644;1311;-646
841617;2;19;2;1670;-1237;3829;325;-11;1389;-676
841627;2;19;2;1670;-1297;3846;383;519;1254;-667
841637;2;19;2;1670;-1344;3890;469;939;844;-506
841647;2;19;2;1670;-1320;3913;497;1318;479;-385
841657;2;19;2;1670;-1304;3909;466;1512;160;-337
841667;2;19;2;1670;-1247;3909;382;1495;-36;-374
841677;2;19;2;1670;-1213;3957;341;1328;-279;-387
841687;2;19;2;1670;-1202;4008;283;1210;-506;-404
841697;2;19;2;1670;-1218;4027;204;1162;-799;-476
841707;2;19;2;1670;-1199;3973;88;1179;-1107;-529
841717;2;19;2;1670;-1172;3925;33;1142;-1265;-709
841727;2;19;2;1670;-1181;3944;-8;924;-1300;-892
841737;2;19;2;1670;-1286;3951;38;714;-1392;-945
841747;2;19;2;1670;-1356;3862;95;787;-1618;-928
841757;2;19;2;1670;-1353;3803;167;996;-1837;-959
841767;2;19;2;1670;-1297;3747;145;1122;-2078;-981
841777;2;19;2;1670;-1238;3705;187;1061;-2261;-1039
841787;2;19;2;1670;-1228;3670;245;1003;-2565;-1035
841797;2;19;2;1670;-1223;3714;214;1116;-2901;-966
841807;2;19;2;1670;-1209;3709;148;1063;-3152;-825
841817;2;19;2;1670;-1193;3665;80;867;-3402;-682
841827;2;19;2;1670;-1162;3630;-11;737;-3614;-577
841837;2;19;2;1670;-984;3635;-41;762;-3729;-521
841847;2;19;2;1670;-875;3631;-20;864;-3762;-511
841857;2;19;2;1670;-818;3653;-111;896;-3766;-541
841867;2;19;2;1670;-835;3670;-245;795;-3819;-515
841877;2;19;2;1670;-830;3598;-384;517;-3888;-356
841887;2;19;2;1670;-841;3594;-400;230;-3937;-237
841897;2;19;2;1670;-846;3558;-324;115;-3926;-270
841907;2;19;2;1670;-793;3637;-223;258;-3829;-231
841917;2;19;2;1670;-671;3768;20;824;-3823;-217
841927;2;19;2;1671;-535;4029;215;1586;-4105;-30
841937;2;19;2;1671;-516;4157;-4;2350;-4208;-23
841947;2;19;2;1671;-901;4370;-234;2531;-3807;-15
841957;2;19;2;1671;-1591;4385;-524;1813;-2805;-66
841967;2;19;2;1671;-1861;4428;-707;1245;-2366;-117
841977;2;19;2;1671;-2044;4523;-909;574;-2231;323
841987;2;19;2;1671;-1769;4357;-867;288;-2490;666
841997;2;19;2;1671;-1201;4155;-802;442;-2510;594
842007;2;19;2;1671;-544;3831;-884;799;-2224;152
842017;2;19;2;1671;-72;3428;-889;740;-2024;-579
842027;2;19;2;1671;12;3330;-666;703;-2338;-1449
842037;2;19;2;1671;-384;3337;-328;963;-3074;-1910
842047;2;19;2;1671;-735;3433;129;1500;-3973;-2212
842057;2;19;2;1671;-1149;3589;409;2126;-4738;-2063
842067;2;19;2;1671;-1299;3712;496;2520;-5172;-1753
842077;2;19;2;1671;-1381;3863;547;2743;-5649;-1306
842087;2;19;2;1671;-1246;3917;329;2895;-6066;-967
842097;2;19;2;1671;-1020;3903;-49;3044;-6201;-738
842107;2;19;2;1671;-779;3814;-405;3318;-6059;-734
842117;2;19;2;1671;-486;3760;-625;3615;-5970;-857
842127;2;19;2;1671;-239;3809;-735;3928;-6095;-1062
842137;2;19;2;1671;-157;3855;-766;4468;-6514;-1169
842147;2;19;2;1671;-196;3880;-912;4972;-6755;-1365
842157;2;19;2;1671;-257;3907;-947;5001;-6870;-1442
842167;2;19;2;1671;-159;3797;-852;4812;-6857;-1627
842177;2;19;2;1671;-177;3709;-847;4689;-6718;-1799
842187;2;19;2;1671;-214;3522;-871;4635;-6481;-1864
842197;2;19;2;1671;-233;3360;-923;4541;-6035;-1976
842207;2;19;2;1671;-192;3292;-927;4347;-5573;-2052
842217;2;19;2;1671;-170;3241;-981;4379;-4925;-2225
842227;2;19;2;1671;-83;3319;-963;4589;-4263;-2226
842237;2;19;2;1671;6;3330;-1032;4989;-3830;-2044
842247;2;19;2;1671;42;3391;-1091;5186;-3533;-1873
842257;2;19;2;1671;-69;3320;-1270;5106;-3420;-1614
842267;2;19;2;1671;-241;3201;-1476;4748;-3145;-1598
842277;2;19;2;1671;-364;3120;-1525;4319;-2713;-1728
842287;2;19;2;1671;-310;3059;-1515;4289;-2120;-1858
842297;2;19;2;1671;-250;2921;-1489;4509;-1633;-1916
842307;2;19;2;1671;-126;2797;-1400;4852;-1203;-2061
842317;2;19;2;1671;-136;2695;-1276;5339;-909;-2051
842327;2;19;2;1671;-110;2607;-1290;5985;-667;-1906
842337;2;19;2;1671;-214;2586;-1240;6555;-795;-1423
842347;2;19;2;1671;-192;2570;-1452;6815;-938;-705
842357;2;19;2;1671;-270;2335;-1467;6746;-683;-245
842367;2;19;2;1671;-347;2188;-1398;7078;-319;-175
842377;2;19;2;1671;-398;2178;-1313;7785;85;-183
842387;2;19;2;1671;-552;2158;-1323;8540;481;-125
842397;2;19;2;1671;-630;1956;-1414;9543;1106;-380
842407;2;19;2;1671;-920;2072;-1458;10009;1487;-512
842417;2;19;2;1671;-1071;2277;-1831;9310;1700;-345
842427;2;19;2;1672;-1273;2474;-1775;8516;1989;-111
842437;2;19;2;1672;-1330;2817;-1506;8528;2492;318
842447;2;19;2;1672;-1348;2728;-1398;9055;2924;607
842457;2;19;2;1672;-1399;2253;-1723;9465;3655;653
842467;2;19;2;1672;-1572;2214;-2143;9257;4700;245
842477;2;19;2;1672;-1518;2340;-2720;8718;5612;-303
842487;2;19;2;1672;-1929;2397;-3178;8179;6375;-970
842497;2;19;2;1672;-1983;2720;-3412;7301;6483;-1533
842507;2;19;2;1672;-2071;3071;-3226;5349;6040;-1895
842517;2;19;2;1672;-2208;3423;-2799;2675;5393;-1792
842527;2;19;2;1672;-2198;3536;-1792;297;5114;-1106
842537;2;19;2;1672;-1936;3333;-235;656;4960;-957
842547;2;19;2;1672;-2213;2739;-73;2953;4807;-1160
842557;2;19;2;1672;-2326;1834;81;4405;4585;-1567
842567;2;19;2;1672;-2313;1188;296;5554;3854;-2480
842577;2;19;2;1672;-2091;757;-401;5259;3236;-3138
842587;2;19;2;1672;-2104;313;-1853;5067;3370;-4144
842597;2;19;2;1672;-2237;431;-2017;5216;3359;-5004
842607;2;19;2;1672;-2111;936;-2101;5291;1776;-4928
842617;2;19;2;1672;-1740;1579;-2187;4792;-290;-3733
842627;2;19;2;1672;-1513;1623;-1956;4540;-1659;-2518
842637;2;19;2;1672;-1261;2184;-1872;4564;-2173;-1516
842647;2;19;2;1672;-1025;2419;-1567;4421;-2583;-697
842657;2;19;2;1672;-1178;2578;-1422;4728;-3357;-319
842667;2;19;2;1672;-1120;2519;-1930;5954;-3830;-293
842677;2;19;2;1672;-859;3017;-2992;6690;-3435;-836
842687;2;19;2;1672;-829;3136;-3838;5430;-2811;-1147
842697;2;19;2;1672;-598;2920;-4171;2198;-2133;-1429
842707;2;19;2;1672;-321;2973;-3916;-1039;-1552;-1360
842717;2;19;2;1672;31;2620;-3199;-3245;-1029;-1139
842727;2;19;2;1672;166;2256;-2479;-4366;-385;-1409
842737;2;19;2;1672;-208;2171;-1966;-4385;217;-1918
842747;2;19;2;1672;-474;2013;-1970;-3778;510;-2432
842757;2;19;2;1672;-758;1908;-2207;-3277;792;-2873
842767;2;19;2;1672;-764;1980;-2135;-2664;750;-3108
842777;2;19;2;1672;-731;2096;-2154;-1582;97;-3095
842787;2;19;2;1672;-1457;2005;-3075;-9;-434;-2774
842797;2;19;2;1672;-2055;1933;-4043;1391;-529;-2636
842807;2;19;2;1672;-2603;2683;-4365;2252;-1413;-2254
842817;2;19;2;1672;-2754;3660;-4679;1840;-3386;-1053
842827;2;19;2;1672;-2498;4377;-5167;544;-4787;499
842837;2;19;2;1672;-2260;4946;-5223;-281;-4973;1207
842847;2;19;2;1672;-1780;5595;-4980;-296;-4370;1486
842857;2;19;2;1672;-1310;5549;-4294;315;-4087;1681
842867;2;19;2;1672;-747;5246;-3479;1347;-5515;1481
842877;2;19;2;1672;-483;5167;-3062;1786;-8153;1610
842887;2;19;2;1672;-919;5020;-3196;795;-10274;1743
842897;2;19;2;1672;-1774;4733;-3299;-417;-11344;2223
842907;2;19;2;1672;-2740;4447;-3239;-899;-12041;2212
842917;2;19;2;1672;-3267;4307;-3622;-258;-11942;2209
842927;2;19;2;1673;-2964;3659;-3772;698;-12010;2312
842937;2;19;2;1673;-2313;2413;-3957;16;-12312;1561
842947;2;19;2;1673;-1486;1832;-3622;-680;-12541;680
842957;2;19;2;1673;-1002;2143;-3482;8;-12895;-357
842967;2;19;2;1673;-1283;2523;-3959;3285;-11889;-1632
842977;2;19;2;1673;-2323;3932;-4045;8588;-9803;-2179
842987;2;19;2;1673;-3513;5330;-3399;14682;-7276;-830
842997;2;19;2;1673;-4865;3146;-3519;22621;-4744;231
843007;2;19;2;1673;-5177;1279;-6207;24866;-2355;137
843017;2;19;2;1673;-4788;2475;-8805;19692;-389;2612
843027;2;19;2;1673;-2829;2296;-8841;10109;740;5554
843037;2;19;2;1673;-1481;-309;-7143;3206;2211;4552
843047;2;19;2;1673;-1876;-1700;-6873;1372;3284;-1556
843057;2;19;2;1673;-2732;-1986;-8176;-1686;5088;-8744
843067;2;19;2;1673;-4899;-291;-7670;-11088;4766;-12447
843077;2;19;2;1673;-5921;1497;-5942;-23927;1690;-10141
843087;2;19;2;1673;-5315;997;-4411;-32768;-286;-7248
843097;2;19;2;1673;-5269;-1507;-3158;-32768;1403;-7729
843107;2;19;2;1673;-6373;-2861;-927;-32768;3911;-9668
843117;2;19;2;1673;-6625;-2459;5792;-32768;6157;-10524
843127;2;19;2;1673;-3486;1051;13782;-13112;4292;-10326
843137;2;19;2;1673;-3129;-962;225;6511;12;-10170
843147;2;19;2;1673;-3489;-2947;-2690;-3423;671;-9218
843157;2;19;2;1673;-2737;-3419;2268;-5611;2369;-9950
843167;2;19;2;1673;-2591;-948;2096;582;857;-10647
843177;2;19;2;1673;-3014;-231;1239;1138;-2407;-9119
843187;2;19;2;1673;-3619;-41;1939;1243;-5460;-7701
843197;2;19;2;1673;-4150;142;1796;2115;-7877;-6816
843207;2;19;2;1673;-4616;-134;1585;2244;-10071;-5665
843217;2;19;2;1673;-4221;-93;1530;2466;-11326;-4898
843227;2;19;2;1673;-3455;252;1410;2056;-12188;-4904
843237;2;19;2;1673;-3484;1114;1283;2033;-13575;-5257
843247;2;19;2;1673;-3676;1863;167;1987;-14083;-5163
843257;2;19;2;1673;-4314;1691;-623;1815;-13622;-5421
843267;2;19;2;1673;-4922;895;-1639;591;-13397;-5598
843277;2;19;2;1673;-4808;144;-2642;-24;-11270;-6648
843287;2;19;2;1673;-4215;-365;-2840;-894;-9176;-7770
843297;2;19;2;1673;-3642;616;-1622;-3123;-8541;-8242
843307;2;19;2;1673;-3776;2239;565;-4355;-9199;-7296
843317;2;19;2;1673;-4373;2858;1824;-2455;-10352;-6128
843327;2;19;2;1673;-5548;3052;1386;-21;-10207;-5134
843337;2;19;2;1673;-6215;1950;-211;1327;-8092;-4542
843347;2;19;2;1673;-6258;569;-1592;1024;-5688;-4712
843357;2;19;2;1673;-5958;-86;-2499;-3565;-4237;-4583
843367;2;19;2;1673;-4806;-635;-2286;-9434;-3050;-4826
843377;2;19;2;1673;-3948;-384;-504;-12148;-2159;-5421
843387;2;19;2;1673;-3364;-258;1124;-10722;-2190;-5703
843397;2;19;2;1673;-3109;-734;1266;-6695;-1855;-6239
843407;2;19;2;1673;-3627;-1004;738;-3229;-998;-6745
843417;2;19;2;1673;-4377;-1282;238;-2109;-533;-6373
843427;2;19;2;1674;-4948;-1587;190;-1621;319;-6236
843437;2;19;2;1674;-5310;-1402;378;-322;622;-6019
843447;2;19;2;1674;-4731;-958;762;1815;97;-5515
843457;2;19;2;1674;-4298;-566;853;3064;-1063;-4709
843467;2;19;2;1674;-4012;-555;844;4272;-1663;-4683
843477;2;19;2;1674;-3438;-610;644;6018;-1557;-5100
843487;2;19;2;1674;-2923;-1015;-185;6499;-1274;-5895
843497;2;19;2;1674;-3290;-899;-1085;4509;-1497;-6192
843507;2;19;2;1674;-3615;-943;-1843;242;-2117;-5916
843517;2;19;2;1674;-3623;-1220;-2427;-5145;-1642;-5822
843527;2;19;2;1674;-3710;-1998;-2335;-11735;-820;-6987
843537;2;19;2;1674;-4621;-2158;-764;-19079;-3;-8744
843547;2;19;2;1674;-6151;-1966;1689;-22626;-8;-9066
843557;2;19;2;1674;-7219;-1485;3839;-20046;-429;-7583
843567;2;19;2;1674;-7321;-1244;4191;-12962;-881;-4487
843577;2;19;2;1674;-6313;-1999;3369;-8452;-1721;-1270
843587;2;19;2;1674;-4771;-2053;3485;-5268;-2570;2276
843597;2;19;2;1674;-2969;-4003;3493;-1963;-3048;4085
843607;2;19;2;1674;-1374;-3932;3815;2112;-2804;3321
843617;2;19;2;1674;-1203;-2877;3199;6083;-2583;1893
843627;2;19;2;1674;-2265;-1868;2305;7611;-2740;666
843637;2;19;2;1674;-3384;-920;1763;8307;-3007;-768
843647;2;19;2;1674;-4185;495;1306;7648;-3573;-1564
843657;2;19;2;1674;-4419;1559;745;4640;-4314;-729
843667;2;19;2;1674;-4205;1676;295;377;-4538;584
843677;2;19;2;1674;-3731;1046;85;-3225;-3698;999
843687;2;19;2;1674;-3293;608;238;-5126;-2508;797
843697;2;19;2;1674;-2907;75;131;-5968;-1872;695
843707;2;19;2;1674;-2819;-416;75;-6323;-1230;309
843717;2;19;2;1674;-3004;-802;95;-6091;5;-354
843727;2;19;2;1674;-3487;-1142;178;-5787;1177;-1160
843737;2;19;2;1674;-4272;-1318;582;-5599;2214;-1687
843747;2;19;2;1674;-4914;-1521;858;-5204;2822;-1881
843757;2;19;2;1674;-5104;-1709;773;-4851;3084;-2220
843767;2;19;2;1674;-4989;-1758;952;-4075;3017;-2017
843777;2;19;2;1674;-4658;-1779;1196;-2985;2313;-1408
843787;2;19;2;1674;-4216;-1800;1057;-2281;1252;-1007
843797;2;19;2;1674;-3925;-1706;982;-1410;808;-977
843807;2;19;2;1674;-3910;-1547;988;-676;464;-1098
843817;2;19;2;1674;-4170;-1330;480;-391;13;-957
843827;2;19;2;1674;-4469;-1187;-20;27;325;-535
843837;2;19;2;1674;-4791;-1002;-256;556;1011;-27
843847;2;19;2;1674;-4838;-853;-237;750;1725;739
843857;2;19;2;1674;-4600;-858;-81;1098;2144;1722
843867;2;19;2;1674;-3955;-1077;-29;1933;2109;2380
843877;2;19;2;1674;-3398;-1243;-119;2998;1942;2421
843887;2;19;2;1674;-3168;-1340;59;3972;1443;2337
843897;2;19;2;1674;-3334;-1055;413;4137;950;1626
843907;2;19;2;1674;-3877;-169;785;4034;234;1435
843917;2;19;2;1674;-4268;83;638;3760;-745;1885
843927;2;19;2;1675;-4782;-6;34;3329;-1084;2378
843937;2;19;2;1675;-4831;-143;-152;2526;-946;3173
843947;2;19;2;1675;-4177;-487;-113;1595;-877;3238
843957;2;19;2;1675;-3538;-610;-94;551;-1117;3361
843967;2;19;2;1675;-3155;-696;-8;109;-1482;3508
843977;2;19;2;1675;-2717;-774;86;-803;-1872;3440
843987;2;19;2;1675;-2665;-654;445;-1280;-2408;3502
843997;2;19;2;1675;-2859;-550;224;-1438;-3228;3795
844007;2;19;2;1675;-2986;-926;-236;-1943;-3612;4290
844017;2;19;2;1675;-3430;-1240;-803;-2905;-3458;4621
844027;2;19;2;1675;-3854;-1733;-897;-4219;-2364;4299
844037;2;19;2;1675;-4426;-1684;-132;-4612;-893;4068
844047;2;19;2;1675;-4749;-1699;702;-3963;209;4127
844057;2;19;2;1675;-4881;-1596;1387;-2625;1155;3708
844067;2;19;2;1675;-4860;-1210;1865;-1053;1803;3222
844077;2;19;2;1675;-4832;-998;1667;1008;1434;2968
844087;2;19;2;1675;-4882;-570;819;3083;462;3425
844097;2;19;2;1675;-4835;-293;12;3539;-480;4469
844107;2;19;2;1675;-4909;-150;-281;3171;-893;5010
844117;2;19;2;1675;-4872;33;-230;2895;-832;4991
844127;2;19;2;1675;-4750;329;109;2747;-693;4823
844137;2;19;2;1675;-4571;484;659;2322;-937;4815
844147;2;19;2;1675;-4375;558;844;1890;-1274;4779
844157;2;19;2;1675;-4277;409;773;1596;-1735;4603
844167;2;19;2;1675;-4408;463;544;1109;-2088;4417
844177;2;19;2;1675;-4388;471;759;868;-2216;4430
844187;2;19;2;1675;-4273;515;990;936;-2092;4210
844197;2;19;2;1675;-4130;463;1143;1305;-2038;3990
844207;2;19;2;1675;-3926;353;1074;1444;-2116;3879
844217;2;19;2;1675;-3760;414;865;1473;-2290;3948
844227;2;19;2;1675;-3895;349;849;1639;-2632;4247
844237;2;19;2;1675;-3930;178;913;2125;-2723;4446
844247;2;19;2;1675;-3831;233;976;2700;-2460;4487
844257;2;19;2;1675;-3694;275;1091;3323;-2421;4869
844267;2;19;2;1675;-3470;374;1264;4107;-2480;5179
844277;2;19;2;1675;-3281;496;1364;5039;-2552;5372
844287;2;19;2;1675;-3312;595;1110;5413;-2357;5298
844297;2;19;2;1675;-3536;778;874;4962;-1956;5198
844307;2;19;2;1675;-3754;940;698;4356;-1272;5186
844317;2;19;2;1675;-3691;1057;779;4067;-905;5323
844327;2;19;2;1675;-3265;933;736;3887;-815;5301
844337;2;19;2;1675;-3067;884;934;3827;-859;5272
844347;2;19;2;1675;-2993;863;1243;4258;-876;5088
844357;2;19;2;1675;-2967;851;1054;4485;-307;4430
844367;2;19;2;1675;-3068;895;651;3857;394;3717
844377;2;19;2;1675;-3148;1060;736;3147;643;3435
844387;2;19;2;1675;-3117;1247;855;3052;41;3430
844397;2;19;2;1675;-3165;1462;874;3263;-657;3634
844407;2;19;2;1675;-3261;1569;896;3389;-1292;3986
844417;2;19;2;1675;-3292;1592;1203;3396;-1652;4142
844427;2;19;2;1676;-3416;1586;1268;3632;-1598;3992
844437;2;19;2;1676;-3581;1760;1130;3590;-1022;3811
844447;2;19;2;1676;-3784;1861;1126;3268;-369;3682
844457;2;19;2;1676;-3696;1934;932;3315;-84;3835
844467;2;19;2;1676;-3460;1885;573;3516;-248;4384
844477;2;19;2;1676;-3043;1859;464;3427;-487;4720
844487;2;19;2;1676;-2858;2039;422;3081;-533;4691
844497;2;19;2;1676;-2884;2325;663;2782;-391;4518
844507;2;19;2;1676;-3046;2536;841;2556;-441;4400
844517;2;19;2;1676;-3347;2675;868;2600;-470;4486
844527;2;19;2;1676;-3499;2729;746;2863;-630;4938
844537;2;19;2;1676;-3438;2745;627;3095;-615;5223
844547;2;19;2;1676;-3280;2705;544;3346;-607;5453
844557;2;19;2;1676;-3015;2642;367;3646;-677;5636
844567;2;19;2;1676;-2618;2659;379;3597;-864;5671
844577;2;19;2;1676;-2410;2605;392;3245;-760;5422
844587;2;19;2;1676;-2362;2534;515;3004;-346;4881
844597;2;19;2;1676;-2493;2523;379;2793;267;4065
844607;2;19;2;1676;-2682;2575;342;2529;831;3373
844617;2;19;2;1676;-2956;2689;449;2254;707;3144
844627;2;19;2;1676;-3017;2728;343;2011;124;3240
844637;2;19;2;1676;-2948;2760;102;1809;-248;3204
844647;2;19;2;1676;-2861;2851;40;1672;-246;3128
844657;2;19;2;1676;-2672;3002;178;1631;-175;3102
844667;2;19;2;1676;-2462;3055;302;1898;-424;3160
844677;2;19;2;1676;-2329;3014;137;2266;-841;3250
844687;2;19;2;1676;-2180;2962;152;2641;-1064;3112
844697;2;19;2;1676;-2206;3021;68;2917;-1195;2919
844707;2;19;2;1676;-2342;3046;-22;3264;-937;2617
844717;2;19;2;1676;-2446;3092;-42;3585;-906;2375
844727;2;19;2;1676;-2338;2976;-47;3727;-1155;2233
844737;2;19;2;1676;-2215;3037;13;3849;-1485;2092
844747;2;19;2;1676;-2228;3190;-111;3945;-2016;2192
844757;2;19;2;1676;-2107;3265;-355;3921;-2331;2282
844767;2;19;2;1676;-1985;3349;-507;3812;-2073;2032
844777;2;19;2;1676;-1908;3411;-456;3589;-1475;1730
844787;2;19;2;1676;-1775;3282;-227;3440;-1036;1329
844797;2;19;2;1676;-1738;3099;-176;3339;-687;788
844807;2;19;2;1676;-1844;2989;-269;3198;-164;299
844817;2;19;2;1676;-2164;3080;-377;2959;314;50
844827;2;19;2;1676;-2367;3016;-365;2857;757;103
844837;2;19;2;1676;-2506;3010;-352;2862;1160;96
844847;2;19;2;1676;-2605;3056;-258;2905;1601;191
844857;2;19;2;1676;-2695;3048;-131;2956;1883;376
844867;2;19;2;1676;-2782;3058;-39;3129;1968;740
844877;2;19;2;1676;-2891;2943;0;3703;1878;1308
844887;2;19;2;1676;-2809;2747;-206;4159;1708;1757
844897;2;19;2;1676;-2718;2787;-280;4451;1719;2080
844907;2;19;2;1676;-2613;2849;-393;4507;1764;2174
844917;2;19;2;1676;-2457;2933;-626;4385;1834;2110
844927;2;19;2;1677;-2351;3138;-671;4186;1904;1881
844937;2;19;2;1677;-2258;3261;-756;4026;2022;1628
844947;2;19;2;1677;-2167;3485;-790;3632;2305;1400
844957;2;19;2;1677;-2083;3503;-914;2794;2388;1379
844967;2;19;2;1677;-2128;3355;-925;2023;2510;1526
844977;2;19;2;1677;-2106;3161;-979;1317;2445;1571
844987;2;19;2;1677;-2163;3106;-915;728;2572;1389
844997;2;19;2;1677;-2204;3214;-642;384;2625;1297
845007;2;19;2;1677;-2288;3210;-286;592;2654;1466
845017;2;19;2;1677;-2410;3140;78;1374;2618;1645
845027;2;19;2;1677;-2355;3015;186;2084;2417;1490
845037;2;19;2;1677;-2254;3060;252;2558;2205;1170
845047;2;19;2;1677;-2152;3002;218;2969;1906;988
845057;2;19;2;1677;-2181;2975;-101;3268;1663;674
845067;2;19;2;1677;-2144;3026;-424;3450;1544;257
845077;2;19;2;1677;-2049;3087;-604;3533;1541;-252
845087;2;19;2;1677;-1994;3154;-781;3507;1470;-546
845097;2;19;2;1677;-1971;3169;-1055;3249;1600;-765
845107;2;19;2;1677;-2002;3353;-994;3140;1843;-989
845117;2;19;2;1677;-2004;3559;-999;3017;1731;-960
845127;2;19;2;1677;-2055;3760;-1203;2726;1556;-798
845137;2;19;2;1677;-2210;3861;-1374;2315;1527;-520
845147;2;19;2;1677;-2402;3763;-1452;2046;1596;-201
845157;2;19;2;1677;-2507;3569;-1529;2049;1828;58
845167;2;19;2;1677;-2403;3372;-1623;2116;2175;262
845177;2;19;2;1677;-2081;3208;-1676;2154;2595;248
845187;2;19;2;1677;-1760;3167;-1583;2235;2935;249
845197;2;19;2;1677;-1477;3136;-1532;2797;3188;162
845207;2;19;2;1677;-1503;3280;-1612;3032;3384;-225
845217;2;19;2;1677;-1646;3367;-1769;2664;3604;-360
845227;2;19;2;1677;-1843;3330;-1609;2126;3830;-585
845237;2;19;2;1677;-2046;3280;-1441;2073;3874;-697
845247;2;19;2;1677;-2210;3351;-1270;2318;3536;-439
845257;2;19;2;1677;-2210;3247;-1272;2666;2875;218
845267;2;19;2;1677;-2073;2896;-1583;2683;2559;404
845277;2;19;2;1677;-1952;2881;-1577;2664;2607;272
845287;2;19;2;1677;-1852;3013;-1443;3029;2644;2
845297;2;19;2;1677;-1813;3065;-1509;3231;2519;-20
845307;2;19;2;1677;-1837;3128;-1662;2926;2355;63
845317;2;19;2;1677;-1904;3122;-1755;2510;2177;197
845327;2;19;2;1677;-2009;3179;-1873;2331;2221;211
845337;2;19;2;1677;-2132;3250;-1931;2486;2369;373
845347;2;19;2;1677;-2192;3215;-1898;2981;2489;587
845357;2;19;2;1677;-2310;3128;-1877;3499;2333;1015
845367;2;19;2;1677;-2266;2994;-1976;3738;2050;1372
845377;2;19;2;1677;-2223;3007;-1863;3687;1756;1680
845387;2;19;2;1677;-2159;2957;-1573;3790;1308;1999
845397;2;19;2;1677;-2252;2771;-1544;3865;853;2177
845407;2;19;2;1677;-2492;2857;-1460;3150;694;2299
845417;2;19;2;1677;-2766;2795;-1602;2469;787;2380
845427;2;19;2;1678;-2855;2509;-2108;2008;1600;2221
845437;2;19;2;1678;-2771;2567;-2220;1787;2481;1963
845447;2;19;2;1678;-2491;2608;-2396;2344;3175;1680
845457;2;19;2;1678;-2278;2701;-2303;3185;3321;1741
845467;2;19;2;1678;-2238;2829;-2375;3739;2705;2173
845477;2;19;2;1678;-2366;2591;-2854;3600;2219;2375
845487;2;19;2;1678;-2701;2405;-3239;3096;2577;2309
845497;2;19;2;1678;-2849;2343;-3233;3247;3202;2273
845507;2;19;2;1678;-2727;2240;-3320;3988;3341;2743
845517;2;19;2;1678;-2568;2280;-3417;4378;3208;3107
845527;2;19;2;1678;-2441;2392;-3333;4313;2878;3550
845537;2;19;2;1678;-2148;2146;-3249;3962;2501;3767
845547;2;19;2;1678;-2025;2087;-3187;3123;2087;3787
845557;2;19;2;1678;-1942;2298;-2901;2043;1665;3632
845567;2;19;2;1678;-1567;2630;-2708;591;1338;3261
845577;2;19;2;1678;-1327;2606;-2632;35;1012;2611
845587;2;19;2;1678;-1506;2738;-3006;-61;653;1824
845597;2;19;2;1678;-1808;2779;-3440;-513;571;1398
845607;2;19;2;1678;-2094;2931;-3674;-1341;216;1124
845617;2;19;2;1678;-2134;3039;-3658;-2598;-571;1231
845627;2;19;2;1678;-2245;3044;-3470;-3677;-1541;1926
845637;2;19;2;1678;-2249;2927;-3282;-4787;-2555;2330
845647;2;19;2;1678;-2130;2935;-3394;-6587;-2610;2386
845657;2;19;2;1678;-2007;2962;-2570;-7674;-2023;2541
845667;2;19;2;1678;-1841;3274;-1783;-6475;-1995;2442
845677;2;19;2;1678;-1706;3189;-2284;-4418;-1535;2218
845687;2;19;2;1678;-1794;3266;-2558;-3356;-90;1681
845697;2;19;2;1678;-1353;3387;-2792;-2582;1107;1661
845707;2;19;2;1678;-1380;3245;-3113;-1975;1400;1901
845717;2;19;2;1678;-1263;3043;-3436;-1676;576;2632
845727;2;19;2;1678;-1117;2640;-3262;-1530;-346;2993
845737;2;19;2;1678;-1269;2702;-3544;-1830;-667;2681
845747;2;19;2;1678;-1459;2749;-3162;-4448;-78;2531
845757;2;19;2;1678;-1593;2861;-2644;-5889;552;2097
845767;2;19;2;1678;-1499;2995;-1953;-4898;1333;1605
845777;2;19;2;1678;-743;3315;-1629;-1053;1140;1261
845787;2;19;2;1678;-829;2783;-2472;801;127;1177
845797;2;19;2;1678;-737;2173;-3262;-237;315;906
845807;2;19;2;1678;-487;2461;-2509;-1231;1128;224
845817;2;19;2;1678;-127;2915;-1975;9;922;-224
845827;2;19;2;1678;-196;2952;-1979;1255;-35;-213
845837;2;19;2;1678;-135;2709;-1620;2486;-1059;101
845847;2;19;2;1678;-70;2786;-1655;3730;-2141;-280
845857;2;19;2;1678;-399;3071;-1906;4429;-3017;-333
845867;2;19;2;1678;-644;3216;-2142;4450;-3558;496
845877;2;19;2;1678;-708;3257;-2375;4414;-3961;760
845887;2;19;2;1678;-770;3496;-2357;4201;-4215;987
845897;2;19;2;1678;-752;3653;-2439;3912;-4269;1478
845907;2;19;2;1678;-786;3775;-2497;3335;-4256;1852
845917;2;19;2;1678;-799;3933;-2439;2751;-4049;2431
845927;2;19;2;1679;-756;4010;-2372;2243;-3638;3170
845937;2;19;2;1679;-596;4054;-2379;1732;-3190;3869
845947;2;19;2;1679;-736;3978;-2707;1032;-2619;4532
845957;2;19;2;1679;-484;3673;-2679;-99;-1985;4975
845967;2;19;2;1679;-83;3435;-2393;-568;-1678;4990
845977;2;19;2;1679;179;3087;-2235;-438;-1469;4702
845987;2;19;2;1679;145;2803;-2211;-758;-1311;4269
845997;2;19;2;1679;-98;2666;-2097;-1479;-1270;3794
846007;2;19;2;1679;-372;2682;-1820;-2066;-1371;3433
846017;2;19;2;1679;-632;2842;-1542;-2239;-1750;3245
846027;2;19;2;1679;-853;2957;-1522;-2022;-2141;3227
846037;2;19;2;1679;-1012;3084;-1548;-1697;-2293;3001
846047;2;19;2;1679;-1029;3217;-1575;-1424;-2360;2793
846057;2;19;2;1679;-855;3229;-1685;-1183;-2231;2567
846067;2;19;2;1679;-705;3288;-1598;-927;-2205;2340
846077;2;19;2;1679;-659;3410;-1664;-643;-2324;2168
846087;2;19;2;1679;-819;3604;-1787;-218;-2473;2169
846097;2;19;2;1679;-1039;3729;-1829;546;-2577;2195
846107;2;19;2;1679;-1298;3996;-1761;2205;-2696;2185
846117;2;19;2;1679;-1331;4199;-1991;4197;-2812;2216
846127;2;19;2;1679;-1322;4092;-2338;5415;-2739;2296
846137;2;19;2;1679;-1305;3844;-2562;5682;-2458;2325
846147;2;19;2;1679;-1270;3735;-2767;5111;-2226;2347
846157;2;19;2;1679;-1331;3841;-2898;4196;-1954;2438
846167;2;19;2;1679;-1221;3921;-2938;3469;-1611;2483
846177;2;19;2;1679;-1127;3937;-2987;3173;-983;2274
846187;2;19;2;1679;-1049;3908;-3009;3486;-114;1711
846197;2;19;2;1679;-980;3856;-3047;4179;571;1165
846207;2;19;2;1679;-868;3803;-3012;4968;590;1158
846217;2;19;2;1679;-704;3413;-3112;5767;-106;1492
846227;2;19;2;1679;-655;3043;-3389;6588;-883;1245
846237;2;19;2;1679;-623;2908;-3799;7168;-1132;713
846247;2;19;2;1679;-800;2882;-4079;7496;-1352;493
846257;2;19;2;1679;-948;2901;-4369;7446;-1755;800
846267;2;19;2;1679;-879;2798;-4620;6717;-2005;1084
846277;2;19;2;1679;-887;2899;-4780;5276;-1983;1323
846287;2;19;2;1679;-782;2808;-4721;3954;-1684;1503
846297;2;19;2;1679;-671;2857;-4408;2885;-1391;1502
846307;2;19;2;1679;-621;3012;-4070;2061;-1286;1404
846317;2;19;2;1679;-439;3076;-3786;1584;-1298;1478
846327;2;19;2;1679;-315;3278;-3700;1404;-1717;1444
846337;2;19;2;1679;-259;3221;-3648;1721;-1951;1244
846347;2;19;2;1679;-406;3200;-3583;2671;-2059;907
846357;2;19;2;1679;-553;3079;-3771;3457;-2230;534
846367;2;19;2;1679;-761;3068;-4229;3034;-2223;248
846377;2;19;2;1679;-1076;3034;-4262;1641;-2117;343
846387;2;19;2;1679;-1282;3036;-3811;446;-2273;728
846397;2;19;2;1679;-1322;2971;-3658;464;-2508;1106
846407;2;19;2;1679;-1329;2740;-3936;-1292;-2052;1256
846417;2;19;2;1679;-1278;2707;-3237;-3700;-1254;994
846427;2;19;2;1680;-1117;2877;-2566;-4909;-741;731
846437;2;19;2;1680;-1068;2950;-2123;-4603;-723;766
846447;2;19;2;1680;-1087;2879;-1986;-3171;-961;973
846457;2;19;2;1680;-956;2703;-2075;-1446;-1225;985
846467;2;19;2;1680;-932;2592;-2302;-51;-1398;970
846477;2;19;2;1680;-959;2309;-2523;770;-1804;926
846487;2;19;2;1680;-943;2071;-2826;923;-2078;647
846497;2;19;2;1680;-977;2017;-2992;387;-2263;325
846507;2;19;2;1680;-974;2006;-3025;-540;-2514;168
846517;2;19;2;1680;-941;1920;-2966;-1445;-2662;-47
846527;2;19;2;1680;-840;1864;-2787;-2252;-2787;-383
846537;2;19;2;1680;-732;1856;-2555;-2800;-2943;-802
846547;2;19;2;1680;-813;1895;-2483;-3017;-3283;-1017
846557;2;19;2;1680;-967;1927;-2498;-2911;-3653;-986
846567;2;19;2;1680;-963;1800;-2506;-2627;-3949;-959
846577;2;19;2;1680;-940;1798;-2547;-2362;-4046;-920
846587;2;19;2;1680;-963;1813;-2570;-2240;-4144;-714
846597;2;19;2;1680;-957;1780;-2638;-2154;-4205;-719
846607;2;19;2;1680;-1028;1849;-2603;-1991;-4072;-967
846617;2;19;2;1680;-1158;1958;-2518;-1685;-3900;-1038
846627;2;19;2;1680;-1237;2102;-2402;-1341;-4005;-1015
846637;2;19;2;1680;-1187;2213;-2417;-1127;-4208;-957
846647;2;19;2;1680;-1286;2332;-2389;-835;-4241;-1051
846657;2;19;2;1680;-1441;2405;-2335;-236;-4296;-911
846667;2;19;2;1680;-1535;2387;-2407;482;-4476;-599
846677;2;19;2;1680;-1581;2343;-2626;938;-4653;-171
846687;2;19;2;1680;-1484;2265;-2819;775;-4669;255
846697;2;19;2;1680;-1386;2181;-2907;37;-4574;481
846707;2;19;2;1680;-1305;2173;-2948;-1005;-4408;580
846717;2;19;2;1680;-1298;2286;-2972;-1982;-4283;584
846727;2;19;2;1680;-1336;2457;-2905;-2648;-4058;593
846737;2;19;2;1680;-1405;2579;-2704;-2865;-3780;621
846747;2;19;2;1680;-1397;2582;-2493;-2578;-3632;698
846757;2;19;2;1680;-1365;2447;-2474;-1915;-3600;787
846767;2;19;2;1680;-1333;2337;-2487;-1434;-3539;861
846777;2;19;2;1680;-1321;2239;-2382;-1336;-3567;1057
846787;2;19;2;1680;-1267;2129;-2377;-1710;-3463;977
846797;2;19;2;1680;-1286;2142;-2152;-2282;-3287;895
846807;2;19;2;1680;-1337;2158;-1909;-2664;-3292;883
846817;2;19;2;1680;-1427;2189;-1732;-2673;-3457;971
846827;2;19;2;1680;-1614;2385;-1483;-2417;-3639;1252
846837;2;19;2;1680;-1643;2446;-1400;-1973;-3938;1668
846847;2;19;2;1680;-1629;2430;-1364;-1311;-3963;1838
846857;2;19;2;1680;-1637;2467;-1377;-528;-3857;1895
846867;2;19;2;1680;-1745;2379;-1514;233;-3519;1840
846877;2;19;2;1680;-1780;2320;-1579;806;-3149;1749
846887;2;19;2;1680;-1709;2251;-1697;1127;-2767;1592
846897;2;19;2;1680;-1582;2197;-1609;1208;-2371;1349
846907;2;19;2;1680;-1467;2177;-1459;746;-2158;1042
846917;2;19;2;1680;-1457;2314;-1284;463;-2073;579
846927;2;19;2;1681;-1562;2454;-1060;607;-2002;272
846937;2;19;2;1681;-1840;2644;-882;1123;-2242;303
846947;2;19;2;1681;-2149;2765;-885;1726;-2849;847
846957;2;19;2;1681;-2419;2920;-1185;2218;-3338;1419
846967;2;19;2;1681;-2636;3049;-1595;2332;-3187;1772
846977;2;19;2;1681;-2737;3269;-1940;1900;-2548;2010
846987;2;19;2;1681;-2647;3210;-2088;1266;-1835;2205
846997;2;19;2;1681;-2524;3235;-2247;-39;-1140;2464
847007;2;19;2;1681;-2319;3122;-2354;-1534;-625;2722
847017;2;19;2;1681;-2171;2955;-2460;-3745;32;2706
847027;2;19;2;1681;-1962;2933;-2484;-6367;791;2569
847037;2;19;2;1681;-1761;2784;-2255;-8856;1599;2173
847047;2;19;2;1681;-1653;2608;-1713;-10441;2280;1464
847057;2;19;2;1681;-1624;2435;-1148;-10525;2661;573
847067;2;19;2;1681;-1668;2307;-706;-9003;2780;-522
847077;2;19;2;1681;-1887;2357;-575;-6218;2620;-1645
847087;2;19;2;1681;-2304;2694;-764;-3575;2436;-2161
847097;2;19;2;1681;-2700;3001;-1227;-2451;1755;-1846
847107;2;19;2;1681;-2824;3194;-1751;-2906;874;-942
847117;2;19;2;1681;-2677;3264;-1648;-2821;204;-21
847127;2;19;2;1681;-2169;3260;-1729;-1585;56;441
847137;2;19;2;1681;-1392;3078;-1938;-880;183;232
847147;2;19;2;1681;-841;3147;-1749;-804;147;-105
847157;2;19;2;1681;-734;3347;-1525;149;-73;-63
847167;2;19;2;1681;-1153;3415;-1853;1352;-410;15
847177;2;19;2;1681;-1743;3393;-2410;2626;-460;-102
847187;2;19;2;1681;-2088;3480;-2945;3918;-401;48
847197;2;19;2;1681;-2130;3715;-3291;4580;-394;611
847207;2;19;2;1681;-1892;3916;-3370;4238;-442;1415
847217;2;19;2;1681;-1534;3855;-3141;3425;-517;1700
847227;2;19;2;1681;-1152;3774;-2772;2659;-561;1509
847237;2;19;2;1681;-842;3730;-2390;2384;-661;1115
847247;2;19;2;1681;-593;3605;-2172;2391;-1074;835
847257;2;19;2;1681;-430;3507;-1883;2597;-1828;735
847267;2;19;2;1681;-518;3420;-1794;3586;-2950;815
847277;2;19;2;1681;-710;3014;-2483;4480;-3742;1057
847287;2;19;2;1681;-901;2552;-2991;4469;-3646;851
847297;2;19;2;1681;-1109;2514;-3131;4253;-3188;594
847307;2;19;2;1681;-1116;2498;-3242;3843;-2547;469
847317;2;19;2;1681;-1075;2533;-3193;3045;-1799;351
847327;2;19;2;1681;-856;2746;-2933;2420;-1059;112
847337;2;19;2;1681;-646;2755;-2559;1887;-568;407
847347;2;19;2;1681;-567;2758;-2366;1313;-463;553
847357;2;19;2;1681;-658;2706;-2217;860;-290;601
847367;2;19;2;1681;-760;2653;-1999;930;-27;520
847377;2;19;2;1681;-822;2713;-1733;1514;159;514
847387;2;19;2;1681;-830;2661;-1533;2449;-33;433
847397;2;19;2;1681;-1007;2740;-1695;3343;-293;554
847407;2;19;2;1681;-1094;2605;-1872;3914;-339;569
847417;2;19;2;1681;-1056;2599;-1903;4380;-307;316
