timestamp;subject_id;activity;label;seq;ax;ay;az;gx;gy;gz
761429;2;19;2;1510;833;4238;-79;1154;-1418;-665
761439;2;19;2;1510;695;4241;-196;1347;-1877;-471
761449;2;19;2;1510;586;4238;-444;1566;-2280;-251
761459;2;19;2;1510;505;4207;-758;1709;-2492;11
761469;2;19;2;1510;463;4093;-1053;1540;-2534;235
761479;2;19;2;1510;466;3987;-1297;929;-2484;341
761489;2;19;2;1510;562;3854;-1404;-65;-2466;452
761499;2;19;2;1510;661;3714;-1428;-1312;-2554;475
761509;2;19;2;1510;764;3659;-1274;-2469;-2621;369
761519;2;19;2;1510;884;3659;-995;-3291;-2650;87
761529;2;19;2;1510;911;3693;-654;-3766;-2605;-195
761539;2;19;2;1510;986;3746;-261;-3939;-2502;-566
761549;2;19;2;1510;964;3901;212;-3915;-2463;-950
761559;2;19;2;1510;904;4070;610;-3206;-2682;-1139
761569;2;19;2;1510;835;4143;808;-1840;-3182;-1129
761579;2;19;2;1510;827;4127;706;-276;-3733;-1102
761589;2;19;2;1510;753;4063;368;819;-4143;-1070
761599;2;19;2;1510;686;4013;28;1272;-4313;-1133
761609;2;19;2;1510;642;3993;-195;1438;-4331;-1276
761619;2;19;2;1510;593;4085;-288;1550;-4363;-1448
761629;2;19;2;1510;506;4202;-281;1632;-4489;-1534
761639;2;19;2;1510;426;4315;-274;1759;-4747;-1531
761649;2;19;2;1510;353;4374;-353;1849;-5105;-1495
761659;2;19;2;1510;169;4420;-439;1814;-5470;-1404
761669;2;19;2;1510;98;4463;-538;1712;-5679;-1360
761679;2;19;2;1510;-18;4539;-642;1649;-5831;-1303
761689;2;19;2;1510;-155;4574;-723;1520;-5948;-1198
761699;2;19;2;1510;-254;4633;-790;1412;-5961;-1128
761709;2;19;2;1510;-275;4638;-748;1434;-6064;-956
761719;2;19;2;1510;-251;4420;-922;1397;-6209;-660
761729;2;19;2;1510;-289;4189;-1118;907;-6189;-623
761739;2;19;2;1510;-225;3883;-1184;-21;-5912;-692
761749;2;19;2;1510;-219;3718;-1069;-1242;-5502;-911
761759;2;19;2;1510;-227;3621;-754;-2412;-5086;-1131
761769;2;19;2;1510;-228;3630;-231;-3282;-4510;-1376
761779;2;19;2;1510;-219;3720;345;-3075;-3971;-1534
761789;2;19;2;1510;-179;3851;761;-2058;-3704;-1604
761799;2;19;2;1510;-177;4013;1239;-209;-3804;-1554
761809;2;19;2;1510;-180;4065;1123;1100;-4097;-1474
761819;2;19;2;1510;-199;4042;817;1772;-4387;-1442
761829;2;19;2;1510;-233;4028;447;2002;-4591;-1469
761839;2;19;2;1510;-284;4066;159;2244;-4443;-1532
761849;2;19;2;1510;-375;4125;-80;2703;-4096;-1525
761859;2;19;2;1510;-376;4116;-334;2998;-3856;-1402
761869;2;19;2;1510;-381;4112;-595;2744;-3728;-1289
761879;2;19;2;1510;-357;4104;-763;1977;-3546;-1197
761889;2;19;2;1510;-318;4141;-807;1058;-3213;-1138
761899;2;19;2;1510;-239;4204;-691;259;-2724;-1119
761909;2;19;2;1510;-159;4247;-464;-305;-2305;-1056
761919;2;19;2;1510;-71;4303;-236;-669;-1869;-972
761927;2;19;2;1511;-12;4303;-97;-794;-1666;-841
761937;2;19;2;1511;16;4245;12;-880;-1457;-652
761947;2;19;2;1511;67;4245;61;-840;-1189;-477
761957;2;19;2;1511;77;4137;20;-719;-902;-251
761967;2;19;2;1511;101;4081;-54;-627;-475;-138
761977;2;19;2;1511;97;4073;-37;-605;-115;12
761987;2;19;2;1511;31;4077;-1;-603;27;169
761997;2;19;2;1511;-40;4087;-26;-493;158;337
762007;2;19;2;1511;-118;4100;-91;-272;363;515
762017;2;19;2;1511;-161;4116;-168;-130;524;682
762027;2;19;2;1511;-193;4160;-249;-176;595;836
762037;2;19;2;1511;-200;4153;-317;-351;687;951
762047;2;19;2;1511;-167;4132;-371;-534;839;987
762057;2;19;2;1511;-157;4137;-363;-675;983;971
762067;2;19;2;1511;-179;4124;-335;-827;1062;935
762077;2;19;2;1511;-211;4109;-300;-967;1053;895
762087;2;19;2;1511;-250;4115;-277;-1028;988;906
762097;2;19;2;1511;-271;4095;-249;-1017;921;906
762107;2;19;2;1511;-283;4062;-263;-958;866;922
762117;2;19;2;1511;-324;4036;-270;-940;817;956
762127;2;19;2;1511;-341;3979;-265;-985;759;997
762137;2;19;2;1511;-344;3976;-214;-1012;783;994
762147;2;19;2;1511;-351;3944;-136;-915;770;1042
762157;2;19;2;1511;-289;3906;-152;-709;756;1080
762167;2;19;2;1511;-205;3918;-164;-488;764;1059
762177;2;19;2;1511;-125;3934;-173;-254;639;1082
762187;2;19;2;1511;-109;3897;-302;-109;420;1107
762197;2;19;2;1511;-113;3816;-460;-97;334;1111
762207;2;19;2;1511;-135;3727;-579;-237;393;1067
762217;2;19;2;1511;-138;3678;-612;-497;438;1022
762227;2;19;2;1511;-65;3685;-511;-762;399;982
762237;2;19;2;1511;30;3753;-386;-705;340;951
762247;2;19;2;1511;111;3817;-220;-137;259;956
762257;2;19;2;1511;191;3931;-146;638;172;896
762267;2;19;2;1511;317;4040;-237;1192;52;763
762277;2;19;2;1511;378;4096;-367;1433;-118;601
762287;2;19;2;1511;429;4210;-434;1517;-364;430
762297;2;19;2;1511;451;4341;-475;1789;-723;389
762307;2;19;2;1511;384;4440;-656;2350;-1171;523
762317;2;19;2;1511;326;4377;-997;2857;-1494;732
762327;2;19;2;1511;252;4323;-1462;3079;-1374;955
762337;2;19;2;1511;-10;4105;-1768;2846;-963;1325
762347;2;19;2;1511;73;4058;-1566;1962;-596;1148
762357;2;19;2;1511;461;4229;-1344;1202;-387;1045
762367;2;19;2;1511;795;4377;-792;1056;-130;1050
762377;2;19;2;1511;990;4394;-368;1440;-69;1008
762387;2;19;2;1511;1206;4400;-125;2144;-306;783
762397;2;19;2;1511;1268;4281;-218;2566;-225;658
762407;2;19;2;1511;1170;4022;-172;2326;549;408
762417;2;19;2;1511;1181;4089;284;2038;1455;19
762427;2;19;2;1512;1187;4276;852;2307;2044;-83
762437;2;19;2;1512;1259;4418;1142;2860;2233;-157
762447;2;19;2;1512;1257;4551;1083;3345;2155;-136
762457;2;19;2;1512;1205;4567;759;3603;1983;-209
762467;2;19;2;1512;1071;4538;380;3804;2004;-335
762477;2;19;2;1512;939;4389;-212;3452;1878;-513
762487;2;19;2;1512;789;4363;-632;2140;1469;-744
762497;2;19;2;1512;536;4498;-741;501;910;-726
762507;2;19;2;1512;406;4452;-694;-372;259;-554
762517;2;19;2;1512;169;4358;-741;-738;-331;-380
762527;2;19;2;1512;7;4207;-642;-904;-497;-126
762537;2;19;2;1512;47;3993;-488;-1082;-516;103
762547;2;19;2;1512;251;3918;-234;-1384;-458;201
762557;2;19;2;1512;477;3934;149;-1441;-415;225
762567;2;19;2;1512;738;3960;475;-1084;-471;180
762577;2;19;2;1512;900;3984;574;-583;-623;93
762587;2;19;2;1512;979;3995;472;-371;-814;-70
762597;2;19;2;1512;978;3986;353;-361;-964;-253
762607;2;19;2;1512;905;4017;294;-348;-1115;-433
762617;2;19;2;1512;787;4124;213;-290;-1277;-518
762627;2;19;2;1512;731;4135;27;-345;-1421;-576
762637;2;19;2;1512;676;4156;-158;-571;-1587;-588
762647;2;19;2;1512;655;4174;-248;-897;-1807;-561
762657;2;19;2;1512;661;4184;-312;-1190;-2016;-543
762667;2;19;2;1512;646;4171;-382;-1435;-2115;-555
762677;2;19;2;1512;638;4118;-525;-1719;-2115;-548
762687;2;19;2;1512;659;4024;-523;-2044;-2061;-550
762697;2;19;2;1512;679;4014;-408;-2268;-2009;-513
762707;2;19;2;1512;753;3978;-290;-2247;-1942;-458
762717;2;19;2;1512;829;4022;-261;-1992;-1769;-461
762727;2;19;2;1512;839;4088;-204;-1706;-1488;-483
762737;2;19;2;1512;805;4131;-159;-1455;-1214;-557
762747;2;19;2;1512;694;4242;-95;-1104;-1160;-603
762757;2;19;2;1512;533;4349;-137;-596;-1285;-548
762767;2;19;2;1512;381;4374;-339;-178;-1501;-426
762777;2;19;2;1512;288;4385;-641;-98;-1752;-221
762787;2;19;2;1512;219;4328;-889;-358;-2061;15
762797;2;19;2;1512;158;4163;-1151;-657;-2255;167
762807;2;19;2;1512;53;4096;-1405;-1349;-2315;241
762817;2;19;2;1512;-77;4045;-1581;-2361;-2168;350
762827;2;19;2;1512;-219;3968;-1461;-3284;-1581;419
762837;2;19;2;1512;-228;3791;-1108;-3695;-955;507
762847;2;19;2;1512;-271;3763;-654;-3910;-478;563
762857;2;19;2;1512;-157;3790;-246;-3982;-165;601
762867;2;19;2;1512;61;3849;287;-3516;97;502
762877;2;19;2;1512;241;3948;723;-2194;93;443
762887;2;19;2;1512;412;3965;836;-594;-72;286
762897;2;19;2;1512;521;3872;535;306;-408;54
762907;2;19;2;1512;489;3819;136;352;-700;-309
762917;2;19;2;1512;316;3879;-127;216;-788;-591
762927;2;19;2;1513;186;3923;-239;397;-695;-778
762937;2;19;2;1513;24;4013;-417;632;-526;-872
762947;2;19;2;1513;-55;4110;-572;624;-375;-875
762957;2;19;2;1513;-75;4177;-644;305;-321;-785
762967;2;19;2;1513;-41;4218;-608;-7;-375;-670
762977;2;19;2;1513;42;4230;-588;-93;-474;-571
762987;2;19;2;1513;125;4177;-620;-85;-525;-550
762997;2;19;2;1513;176;4129;-654;-122;-475;-597
763007;2;19;2;1513;195;4097;-596;-130;-343;-668
763017;2;19;2;1513;196;4154;-412;-92;-260;-711
763027;2;19;2;1513;153;4221;-227;21;-386;-664
763037;2;19;2;1513;114;4237;-134;226;-581;-533
763047;2;19;2;1513;104;4216;-220;372;-589;-469
763057;2;19;2;1513;146;4203;-303;415;-436;-407
763067;2;19;2;1513;204;4126;-330;314;-329;-370
763077;2;19;2;1513;264;4076;-324;-7;-290;-360
763087;2;19;2;1513;295;4040;-218;-415;-327;-321
763097;2;19;2;1513;320;4005;-40;-735;-415;-296
763107;2;19;2;1513;347;4010;186;-784;-478;-287
763117;2;19;2;1513;341;4071;479;-541;-543;-298
763127;2;19;2;1513;309;4152;636;-36;-571;-278
763137;2;19;2;1513;262;4181;670;429;-537;-253
763147;2;19;2;1513;274;4202;557;670;-490;-242
763157;2;19;2;1513;250;4235;416;589;-426;-261
763167;2;19;2;1513;225;4356;224;481;-374;-220
763177;2;19;2;1513;147;4308;-58;554;-303;-101
763187;2;19;2;1513;71;4357;-313;373;-214;-19
763197;2;19;2;1513;20;4352;-494;91;-125;270
763207;2;19;2;1513;6;4267;-612;-290;6;426
763217;2;19;2;1513;10;4208;-605;-828;83;574
763227;2;19;2;1513;71;4093;-508;-1430;171;661
763237;2;19;2;1513;50;4030;-293;-2021;220;686
763247;2;19;2;1513;32;4001;-82;-2272;271;676
763257;2;19;2;1513;33;3994;194;-2152;392;635
763267;2;19;2;1513;40;4000;441;-1671;557;568
763277;2;19;2;1513;74;4046;657;-1032;732;484
763287;2;19;2;1513;108;4071;715;-413;765;389
763297;2;19;2;1513;169;4105;633;34;690;310
763307;2;19;2;1513;189;4048;484;299;669;207
763317;2;19;2;1513;224;4009;303;463;719;77
763327;2;19;2;1513;240;4000;153;524;916;-88
763337;2;19;2;1513;265;4012;152;481;1148;-239
763347;2;19;2;1513;218;4046;244;316;1233;-320
763357;2;19;2;1513;179;4063;334;156;1220;-345
763367;2;19;2;1513;172;4100;374;72;1259;-326
763377;2;19;2;1513;187;4170;392;94;1288;-252
763387;2;19;2;1513;213;4235;400;62;1260;-136
763397;2;19;2;1513;246;4296;373;-15;1155;51
763407;2;19;2;1513;269;4320;262;-223;1087;224
763417;2;19;2;1513;320;4342;215;-500;1059;402
763429;2;19;2;1514;364;4289;157;-753;1030;581
763439;2;19;2;1514;362;4242;104;-1062;1039;738
763449;2;19;2;1514;353;4204;84;-1462;1023;981
763459;2;19;2;1514;312;4083;19;-1867;1063;1207
763469;2;19;2;1514;322;4008;37;-2234;1185;1413
763479;2;19;2;1514;339;3998;132;-2493;1332;1664
763489;2;19;2;1514;376;3923;205;-2517;1530;1869
763499;2;19;2;1514;482;3851;354;-2301;1804;2007
763509;2;19;2;1514;596;3801;383;-2118;2038;2052
763519;2;19;2;1514;755;3801;468;-1905;2152;2030
763529;2;19;2;1514;1031;3994;627;-1393;2290;1811
763539;2;19;2;1514;1234;4274;860;-513;2493;1407
763549;2;19;2;1514;1173;4464;926;315;2280;1049
763559;2;19;2;1514;980;4543;595;802;1604;853
763569;2;19;2;1514;676;4451;-53;726;1083;821
763579;2;19;2;1514;466;4504;-617;483;1225;637
763589;2;19;2;1514;249;4568;-829;653;1712;644
763599;2;19;2;1514;184;4540;-849;1121;2059;720
763609;2;19;2;1514;319;4484;-831;1335;2257;564
763619;2;19;2;1514;446;4536;-770;993;2311;406
763629;2;19;2;1514;564;4377;-538;485;2370;193
763639;2;19;2;1514;625;4403;-352;13;2285;-178
763649;2;19;2;1514;706;4522;-80;2;2094;-329
763659;2;19;2;1514;748;4444;49;673;1802;-276
763669;2;19;2;1514;624;4358;-35;1600;1370;-74
763679;2;19;2;1514;540;4273;-357;2228;905;279
763689;2;19;2;1514;509;4010;-768;2428;529;683
763699;2;19;2;1514;494;3714;-1168;2008;390;920
763709;2;19;2;1514;498;3494;-1436;838;443;1046
763719;2;19;2;1514;523;3253;-1520;-971;811;922
763729;2;19;2;1514;568;3279;-1244;-2845;1400;544
763739;2;19;2;1514;685;3464;-693;-4065;1961;218
763749;2;19;2;1514;783;3759;-31;-4331;2363;-58
763759;2;19;2;1514;835;4033;604;-3736;2483;-234
763769;2;19;2;1514;898;4349;1070;-2360;2417;-305
763779;2;19;2;1514;965;4390;1228;-570;2071;-429
763789;2;19;2;1514;976;4557;1016;975;1561;-538
763799;2;19;2;1514;974;4640;637;1923;1027;-587
763809;2;19;2;1514;1042;4551;255;2555;571;-620
763819;2;19;2;1514;976;4438;-106;2839;261;-703
763829;2;19;2;1514;931;4311;-481;2782;-11;-737
763839;2;19;2;1514;928;4133;-781;2441;-71;-791
763849;2;19;2;1514;948;3985;-958;1848;-84;-815
763859;2;19;2;1514;966;3836;-971;905;-154;-784
763869;2;19;2;1514;971;3725;-849;-248;-351;-619
763879;2;19;2;1514;992;3702;-633;-1512;-366;-448
763889;2;19;2;1514;1068;3735;-343;-2530;-335;-226
763899;2;19;2;1514;1156;3821;23;-2974;-322;2
763909;2;19;2;1514;1272;3887;337;-2789;-494;268
763919;2;19;2;1514;1442;3954;445;-1921;-849;485
763927;2;19;2;1515;1482;3960;337;-1307;-1127;584
763937;2;19;2;1515;1524;3891;121;-849;-1353;595
763947;2;19;2;1515;1484;3787;-144;-636;-1400;440
763957;2;19;2;1515;1386;3749;-417;-715;-1221;226
763967;2;19;2;1515;1294;3751;-497;-909;-897;20
763977;2;19;2;1515;1223;3793;-387;-1086;-772;-93
763987;2;19;2;1515;1145;3832;-333;-1120;-878;-88
763997;2;19;2;1515;1096;3851;-288;-966;-1125;-15
764007;2;19;2;1515;1073;3858;-347;-715;-1487;99
764017;2;19;2;1515;1107;3814;-501;-571;-1774;165
764027;2;19;2;1515;1137;3804;-580;-617;-1939;167
764037;2;19;2;1515;1172;3825;-583;-820;-2058;113
764047;2;19;2;1515;1260;3920;-507;-951;-2168;10
764057;2;19;2;1515;1315;4013;-399;-818;-2310;-88
764067;2;19;2;1515;1366;4088;-292;-495;-2513;-151
764077;2;19;2;1515;1349;4108;-307;-271;-2704;-147
764087;2;19;2;1515;1323;4139;-363;-115;-2891;-46
764097;2;19;2;1515;1284;4151;-454;168;-2943;134
764107;2;19;2;1515;1202;4229;-524;547;-2654;228
764117;2;19;2;1515;1097;4299;-510;647;-2131;248
764127;2;19;2;1515;1046;4414;-445;175;-1731;167
764137;2;19;2;1515;932;4585;-313;-443;-1960;286
764147;2;19;2;1515;805;4604;-507;-635;-2658;667
764157;2;19;2;1515;768;4613;-828;-406;-3291;837
764167;2;19;2;1515;693;4351;-1143;278;-3457;657
764177;2;19;2;1515;636;4295;-1463;752;-3128;379
764187;2;19;2;1515;629;3968;-1614;658;-2753;223
764197;2;19;2;1515;499;3588;-1570;-211;-2262;-32
764207;2;19;2;1515;282;3407;-1284;-1934;-1352;-512
764217;2;19;2;1515;134;3589;-273;-3163;-87;-896
764227;2;19;2;1515;88;3784;662;-2206;856;-880
764237;2;19;2;1515;258;3842;1319;309;1344;-672
764247;2;19;2;1515;442;3892;1222;2463;998;-565
764257;2;19;2;1515;710;3978;747;2997;155;-545
764267;2;19;2;1515;790;4076;251;2321;-927;-679
764277;2;19;2;1515;661;4231;-111;1674;-1712;-868
764287;2;19;2;1515;484;4382;-423;1740;-1923;-1211
764297;2;19;2;1515;187;4605;-779;2176;-1945;-1260
764307;2;19;2;1515;-181;4602;-939;2573;-1731;-1150
764317;2;19;2;1515;-388;4491;-1035;2466;-1770;-967
764327;2;19;2;1515;-535;4349;-1400;1769;-1729;-656
764337;2;19;2;1515;-624;4171;-1780;575;-1317;-488
764347;2;19;2;1515;-394;3920;-1717;-365;-333;-552
764357;2;19;2;1515;-25;3812;-1478;-1169;668;-686
764367;2;19;2;1515;349;3824;-624;-1744;1586;-979
764377;2;19;2;1515;408;4027;577;-955;1945;-1147
764387;2;19;2;1515;401;4066;1028;1033;1588;-1101
764397;2;19;2;1515;342;3859;406;2061;925;-1078
764407;2;19;2;1515;268;3766;-184;1677;374;-1073
764417;2;19;2;1515;227;3622;-484;1279;322;-1065
764427;2;19;2;1516;81;3690;-630;1474;420;-1093
764437;2;19;2;1516;-37;3720;-796;1859;437;-885
764447;2;19;2;1516;-93;3646;-946;2091;556;-666
764457;2;19;2;1516;-40;3516;-990;2265;722;-616
764467;2;19;2;1516;-92;3473;-1008;2341;813;-658
764477;2;19;2;1516;-160;3425;-1097;2189;801;-607
764487;2;19;2;1516;-182;3208;-994;2147;762;-530
764497;2;19;2;1516;-185;3040;-830;2242;383;-411
764507;2;19;2;1516;-224;2894;-862;2188;-113;-187
764517;2;19;2;1516;-103;2699;-720;2150;-530;123
764527;2;19;2;1516;24;2510;-389;2351;-988;459
764537;2;19;2;1516;63;2393;-192;2699;-1356;639
764547;2;19;2;1516;117;2125;-404;2863;-1742;910
764557;2;19;2;1516;319;1753;-651;2590;-1770;841
764567;2;19;2;1516;422;1676;-614;2327;-1400;604
764577;2;19;2;1516;516;1652;-359;2992;-1110;320
764587;2;19;2;1516;602;1554;-482;4121;-1282;-13
764597;2;19;2;1516;709;1562;-781;4734;-1531;-160
764607;2;19;2;1516;896;1953;-798;4097;-1938;-263
764617;2;19;2;1516;783;2097;-734;3886;-2389;-369
764627;2;19;2;1516;688;2252;-620;4215;-3073;-928
764637;2;19;2;1516;678;2694;-497;5523;-3249;-1402
764647;2;19;2;1516;783;2857;-568;6203;-3488;-1634
764657;2;19;2;1516;966;2942;-615;5500;-3925;-2211
764667;2;19;2;1516;959;3352;-424;4786;-4523;-2907
764677;2;19;2;1516;874;3437;-252;5313;-4700;-3506
764687;2;19;2;1516;639;3561;-254;6313;-4618;-3818
764697;2;19;2;1516;223;3327;-643;6635;-4258;-4013
764707;2;19;2;1516;-154;3230;-1122;5721;-4012;-3305
764717;2;19;2;1516;-188;3461;-1117;4522;-3822;-2016
764727;2;19;2;1516;310;3118;-1004;3297;-4032;-748
764737;2;19;2;1516;791;3044;-1332;1526;-4385;149
764747;2;19;2;1516;1150;2833;-1475;446;-4353;298
764757;2;19;2;1516;1176;2721;-1909;589;-3743;-244
764767;2;19;2;1516;1107;2739;-1850;986;-3049;-1033
764777;2;19;2;1516;903;2529;-1323;1221;-3138;-1709
764787;2;19;2;1516;345;2631;-1134;1409;-4387;-1899
764797;2;19;2;1516;4;2587;-1144;2802;-5611;-1631
764807;2;19;2;1516;-342;2228;-1387;3983;-6143;-1140
764817;2;19;2;1516;-468;2070;-1551;4738;-6332;-782
764827;2;19;2;1516;-365;2042;-1827;4244;-6220;-165
764837;2;19;2;1516;82;2135;-1669;3515;-5831;179
764847;2;19;2;1516;502;2578;-1197;3143;-5114;-246
764857;2;19;2;1516;715;2847;-645;3786;-4356;-1348
764867;2;19;2;1516;621;3023;-937;5058;-3649;-2130
764877;2;19;2;1516;559;2779;-1513;5593;-2959;-2415
764887;2;19;2;1516;497;2472;-2381;5328;-1746;-2752
764897;2;19;2;1516;300;2590;-1553;4112;415;-3837
764907;2;19;2;1516;338;2708;-1430;4419;925;-3427
764917;2;19;2;1516;703;2927;-2046;4907;774;-2539
764927;2;19;2;1517;680;3112;-2842;5149;1156;-2355
764937;2;19;2;1517;384;3360;-3159;5218;1159;-2015
764947;2;19;2;1517;-326;4026;-3015;4993;285;-1460
764957;2;19;2;1517;-971;4356;-2854;5295;-1065;-194
764967;2;19;2;1517;-1257;4587;-3072;6232;-1676;1331
764977;2;19;2;1517;-998;4752;-3250;6218;-1420;2458
764987;2;19;2;1517;-625;5159;-3204;4420;-577;2731
764997;2;19;2;1517;173;5172;-3173;1448;333;2189
765007;2;19;2;1517;739;5167;-3201;-1706;1339;969
765017;2;19;2;1517;1112;4964;-3147;-3693;2138;-725
765027;2;19;2;1517;1144;4877;-3316;-3526;3190;-2493
765037;2;19;2;1517;877;4557;-3147;-912;3882;-3802
765047;2;19;2;1517;262;4248;-3600;2002;3588;-4022
765057;2;19;2;1517;-364;3641;-3912;2500;2531;-3040
765067;2;19;2;1517;-614;3454;-4092;1466;678;-2194
765077;2;19;2;1517;-471;3627;-4056;292;-1014;-965
765087;2;19;2;1517;-122;3900;-4188;-68;-1892;-968
765097;2;19;2;1517;165;4334;-4319;-234;-2327;-1334
765107;2;19;2;1517;586;4663;-4352;-823;-2733;-2094
765117;2;19;2;1517;718;5129;-4336;-1383;-3049;-2643
765127;2;19;2;1517;621;5179;-4213;-1852;-3412;-2973
765137;2;19;2;1517;373;5071;-4025;-2649;-4057;-3247
765147;2;19;2;1517;68;4594;-4054;-3629;-4876;-3486
765157;2;19;2;1517;-33;4001;-3928;-4278;-5502;-4130
765167;2;19;2;1517;-159;3540;-3873;-4266;-6037;-4504
765177;2;19;2;1517;-238;2923;-3847;-3895;-6408;-4850
765187;2;19;2;1517;-78;2391;-3941;-3271;-6937;-5002
765197;2;19;2;1517;252;1991;-3775;-3305;-7968;-4452
765207;2;19;2;1517;367;1943;-3406;-5266;-10410;-3277
765217;2;19;2;1517;348;2314;-2253;-8532;-12941;-2470
765227;2;19;2;1517;247;3069;-575;-9774;-13497;-2526
765237;2;19;2;1517;616;2754;-43;-4960;-10082;-4073
765247;2;19;2;1517;388;2258;-3219;-1022;-4827;-6426
765257;2;19;2;1517;-234;2305;-3705;-5253;-5695;-7740
765267;2;19;2;1517;-1742;3842;-2286;-8088;-10619;-5930
765277;2;19;2;1517;-4383;6504;-2022;-10832;-15148;-2784
765287;2;19;2;1517;-7577;9548;-2812;-13900;-16501;437
765297;2;19;2;1517;-11357;12325;-2750;-13209;-13529;1133
765307;2;19;2;1517;-15233;17322;-3851;-12923;-13123;3664
765317;2;19;2;1517;-8936;10414;-3596;-15139;-10998;-2027
765327;2;19;2;1517;-3005;5390;-1075;-11562;-5056;-10800
765337;2;19;2;1517;-474;1479;871;-3859;-2677;-14074
765347;2;19;2;1517;805;-3261;10591;7711;32723;-21888
765357;2;19;2;1517;-5306;93;13406;-3558;30220;-24867
765367;2;19;2;1517;-3791;2649;13107;-8431;2550;-14199
765377;2;19;2;1517;-1434;-467;-246;-4766;-12802;-5605
765387;2;19;2;1517;-1143;-2995;-6041;-2125;-5334;-3766
765397;2;19;2;1517;-132;-4242;-4883;-220;7083;-6515
765407;2;19;2;1517;-1955;-606;-4971;-5489;11300;-9753
765417;2;19;2;1517;-2636;665;-3525;-15310;9888;-9417
765431;2;19;2;1518;-2113;1148;-1588;-19242;5444;-7572
765441;2;19;2;1518;270;3801;10486;-5143;-768;-6099
765451;2;19;2;1518;-972;5446;5833;13149;-5560;-374
765461;2;19;2;1518;165;1354;1356;1210;-8742;1173
765471;2;19;2;1518;-7;-863;147;-8577;-6245;-3790
765481;2;19;2;1518;-1050;-536;2068;-6994;-1234;-8297
765491;2;19;2;1518;-2055;784;2015;-4525;607;-10177
765501;2;19;2;1518;-2651;1668;1368;-4417;-50;-9869
765511;2;19;2;1518;-2799;1456;777;-5107;-1201;-9133
765521;2;19;2;1518;-1578;1270;194;-6762;-2329;-10347
765531;2;19;2;1518;-1813;1950;158;-8075;-3103;-11704
765541;2;19;2;1518;-2607;2008;763;-8257;-4622;-12302
765551;2;19;2;1518;-4757;2072;438;-6936;-5085;-12246
765561;2;19;2;1518;-5944;923;500;-3419;-4735;-11163
765571;2;19;2;1518;-5996;-1030;797;437;-4221;-9935
765581;2;19;2;1518;-7067;-2451;2306;2281;-6656;-8780
765591;2;19;2;1518;-10160;-1345;4938;-2180;-12490;-6657
765601;2;19;2;1518;-12419;1422;7444;-8528;-18806;-66
765611;2;19;2;1518;-12783;615;5684;-12506;-21123;4569
765621;2;19;2;1518;-12812;-1432;1795;-14972;-13997;6132
765631;2;19;2;1518;-8490;-1571;2104;-13808;-6745;5389
765641;2;19;2;1518;-5856;1554;2386;-16752;-4407;9557
765651;2;19;2;1518;-2589;1744;2093;-22727;-4318;13032
765661;2;19;2;1518;1007;2821;1812;-26429;-4473;8513
765671;2;19;2;1518;1117;4753;3156;-24359;-2526;2131
765681;2;19;2;1518;-568;5591;5206;-18535;-1373;-4600
765691;2;19;2;1518;-3153;5954;5717;-9519;-1113;-9232
765701;2;19;2;1518;-4786;3554;5134;3339;-699;-11912
765711;2;19;2;1518;-5758;819;3034;16837;28;-13460
765721;2;19;2;1518;-6758;-946;691;24178;524;-12348
765731;2;19;2;1518;-6902;-2180;-1560;22173;193;-8236
765741;2;19;2;1518;-5596;-2796;-3480;12692;191;-3572
765751;2;19;2;1518;-3531;-2166;-3797;1758;492;-1569
765761;2;19;2;1518;-1971;-851;-2654;-7598;730;-576
765771;2;19;2;1518;-1316;383;-752;-13208;-238;-1140
765781;2;19;2;1518;-1894;1667;1210;-14937;-2403;-2053
765791;2;19;2;1518;-2716;2107;2718;-13338;-4489;-1537
765801;2;19;2;1518;-2939;1860;2874;-8849;-5605;-1365
765811;2;19;2;1518;-2736;1284;2713;-3059;-4749;-2025
765821;2;19;2;1518;-2361;761;2583;2177;-3933;-2492
765831;2;19;2;1518;-2247;106;2067;4880;-4817;-2370
765841;2;19;2;1518;-2930;-405;1565;4570;-6256;-1782
765851;2;19;2;1518;-3824;-623;1382;2170;-7455;-446
765861;2;19;2;1518;-4206;-841;1202;-586;-7556;579
765871;2;19;2;1518;-3496;-1098;1393;-1904;-6761;105
765881;2;19;2;1518;-2959;-793;1992;-1940;-6175;-738
765891;2;19;2;1518;-3301;-387;2235;-2019;-6174;-705
765901;2;19;2;1518;-3374;-465;2184;-1959;-6089;-482
765911;2;19;2;1518;-2792;-512;2045;-1896;-5101;-840
765921;2;19;2;1518;-2042;-321;2407;-1548;-3877;-2335
765927;2;19;2;1519;-2052;-124;2767;-1305;-4024;-2776
765937;2;19;2;1519;-2627;293;3174;-1125;-4727;-2304
765947;2;19;2;1519;-3132;137;3107;-529;-5247;-796
765957;2;19;2;1519;-2855;-391;2725;501;-4680;-153
765967;2;19;2;1519;-2513;-502;2634;1117;-3573;-338
765977;2;19;2;1519;-2218;-264;2928;738;-3312;-140
765987;2;19;2;1519;-2199;-8;3074;-406;-3955;818
765997;2;19;2;1519;-2268;-33;3173;-1324;-4421;1837
766007;2;19;2;1519;-2209;-6;3054;-2132;-4279;2433
766017;2;19;2;1519;-1816;98;3294;-3148;-3735;2549
766027;2;19;2;1519;-1523;408;3545;-4246;-3180;1999
766037;2;19;2;1519;-1704;971;4020;-4906;-2738;1561
766047;2;19;2;1519;-1728;1149;4244;-4222;-2190;1555
766057;2;19;2;1519;-1741;1153;4311;-2367;-1332;1095
766067;2;19;2;1519;-1874;1214;4300;-751;-550;499
766077;2;19;2;1519;-2070;1277;4246;383;-119;-111
766087;2;19;2;1519;-2387;1004;4029;1110;344;-712
766097;2;19;2;1519;-2765;729;3908;2145;771;-1031
766107;2;19;2;1519;-2941;555;3363;3265;1424;-1037
766117;2;19;2;1519;-2880;18;2784;3716;2528;-1221
766127;2;19;2;1519;-2619;-93;2596;3336;3209;-1637
766137;2;19;2;1519;-2420;72;2485;2144;3094;-1384
766147;2;19;2;1519;-2322;55;2689;753;2248;-782
766157;2;19;2;1519;-2266;113;2765;75;1457;-517
766167;2;19;2;1519;-2638;302;2908;-167;1138;-149
766177;2;19;2;1519;-2738;63;2981;195;905;453
766187;2;19;2;1519;-2636;18;3079;554;1255;687
766197;2;19;2;1519;-2768;-8;2901;1022;1845;672
766207;2;19;2;1519;-2941;-17;3011;870;2059;781
766217;2;19;2;1519;-2938;-171;2717;793;2299;1064
766227;2;19;2;1519;-2923;-137;2457;294;2779;1333
766237;2;19;2;1519;-2673;-142;2535;-373;2821;1438
766247;2;19;2;1519;-2455;-116;2581;-1504;2572;1546
766257;2;19;2;1519;-2704;55;2729;-2326;2358;1680
766267;2;19;2;1519;-3104;43;3087;-2167;2246;1888
766277;2;19;2;1519;-3418;304;3269;-1563;2084;2385
766287;2;19;2;1519;-3487;498;3410;-1262;1847;3125
766297;2;19;2;1519;-3234;619;3401;-376;1958;3510
766307;2;19;2;1519;-3028;672;2870;437;2923;3384
766317;2;19;2;1519;-2935;865;2539;192;4560;2477
766327;2;19;2;1519;-2937;1061;2675;-458;5914;1666
766337;2;19;2;1519;-3077;1464;2937;-791;6214;1817
766347;2;19;2;1519;-3095;1441;2885;-767;5931;2422
766357;2;19;2;1519;-3148;1047;2552;159;6153;2386
766367;2;19;2;1519;-3252;718;2303;2500;7113;1675
766377;2;19;2;1519;-3639;659;2308;5156;7778;1667
766387;2;19;2;1519;-3859;533;2210;7345;7726;2620
766397;2;19;2;1519;-3871;359;1764;8291;7472;3751
766407;2;19;2;1519;-3780;260;1260;7672;7383;4345
766417;2;19;2;1519;-4011;361;925;6198;7790;4183
766427;2;19;2;1520;-4760;554;1656;5416;8420;4068
766437;2;19;2;1520;-5997;1038;3757;8447;8341;5281
766447;2;19;2;1520;-5526;976;2553;13747;9202;6976
766457;2;19;2;1520;-3956;288;1442;15804;11453;7167
766467;2;19;2;1520;-3513;414;1362;14755;12694;6951
766477;2;19;2;1520;-3637;1204;1113;10282;11383;7849
766487;2;19;2;1520;-3042;1351;707;4543;9542;9292
766497;2;19;2;1520;-2482;1418;1104;2560;8738;9774
766507;2;19;2;1520;-2312;1416;2670;4184;7355;10219
766517;2;19;2;1520;-2309;1582;3421;8701;1414;11858
766527;2;19;2;1520;-3167;1816;1029;14387;-7052;14648
766537;2;19;2;1520;-4386;4059;-2471;15474;-8614;13811
766547;2;19;2;1520;-3625;4833;-3279;8744;-5662;9738
766557;2;19;2;1520;-2358;3822;-1778;-822;-2537;5667
766567;2;19;2;1520;-2620;3020;-253;-5268;-2802;2565
766577;2;19;2;1520;-3446;2775;964;-4839;-5330;926
766587;2;19;2;1520;-3595;2613;1901;-2049;-8375;829
766597;2;19;2;1520;-3299;2874;2037;1791;-9956;927
766607;2;19;2;1520;-2938;3036;1259;4962;-9147;1192
766617;2;19;2;1520;-2612;2677;916;6778;-7533;1837
766627;2;19;2;1520;-2459;2255;693;6919;-6992;3017
766637;2;19;2;1520;-2633;2209;693;6051;-7671;4853
766647;2;19;2;1520;-2833;2467;998;5454;-8596;6885
766657;2;19;2;1520;-2852;2783;1310;5932;-9244;8872
766667;2;19;2;1520;-2734;2807;1384;6719;-9576;10717
766677;2;19;2;1520;-2488;2303;1321;7185;-9476;11361
766687;2;19;2;1520;-2262;2200;1278;7437;-8520;10615
766697;2;19;2;1520;-1914;2671;1154;7721;-6979;9147
766707;2;19;2;1520;-1634;3211;978;7929;-5552;7996
766717;2;19;2;1520;-1349;3207;602;7818;-4482;7155
766727;2;19;2;1520;-983;3138;364;7353;-3870;6026
766737;2;19;2;1520;-1134;3394;380;6676;-3819;5213
766747;2;19;2;1520;-1430;3525;492;6132;-4214;5035
766757;2;19;2;1520;-1549;3333;634;6004;-4544;4945
766767;2;19;2;1520;-1688;3084;589;6156;-4314;4604
766777;2;19;2;1520;-1992;3138;614;6008;-3736;4297
766787;2;19;2;1520;-2191;3056;837;5979;-3094;4228
766797;2;19;2;1520;-2078;2920;788;6311;-2325;4181
766807;2;19;2;1520;-1805;2831;521;6761;-1463;3891
766817;2;19;2;1520;-1496;3006;311;7186;-501;3288
766827;2;19;2;1520;-1336;3394;342;7556;-43;3029
766837;2;19;2;1520;-1309;3697;461;7984;-172;3355
766847;2;19;2;1520;-1112;3912;270;8451;-978;3906
766857;2;19;2;1520;-775;3967;-11;8501;-1983;4753
766867;2;19;2;1520;-630;3982;-113;8432;-2692;5377
766877;2;19;2;1520;-672;4149;-414;8242;-3106;5778
766887;2;19;2;1520;-416;4120;-531;7714;-3253;5881
766897;2;19;2;1520;-326;4125;-698;7526;-2826;5505
766907;2;19;2;1520;-366;4037;-702;7357;-1951;5024
766917;2;19;2;1520;-165;4096;-700;7708;-1052;4415
766927;2;19;2;1521;-197;4374;-640;8533;-552;4431
766937;2;19;2;1521;-138;4486;-434;9180;-660;5153
766947;2;19;2;1521;-101;4498;-264;9848;-903;6426
766957;2;19;2;1521;234;4439;-282;11104;-813;7124
766967;2;19;2;1521;354;4660;-267;12308;-211;7341
766977;2;19;2;1521;602;4634;-606;13165;307;7043
766987;2;19;2;1521;815;4373;-1042;12882;1051;6180
766997;2;19;2;1521;798;4044;-1439;11541;1970;4534
767007;2;19;2;1521;658;3867;-1362;9879;2925;2903
767017;2;19;2;1521;408;4028;-1130;8503;3417;1789
767027;2;19;2;1521;101;4340;-943;8194;3692;1449
767037;2;19;2;1521;11;4453;-880;8561;3994;1646
767047;2;19;2;1521;-15;4400;-853;9067;4442;1936
767057;2;19;2;1521;87;4197;-1040;9366;5073;2324
767067;2;19;2;1521;207;3814;-1326;9063;5691;2591
767077;2;19;2;1521;124;3496;-1625;8003;6243;2522
767087;2;19;2;1521;-183;3377;-1798;6491;6826;2293
767097;2;19;2;1521;-425;3284;-1862;5105;7130;2162
767107;2;19;2;1521;-761;3279;-2038;4499;7185;2210
767117;2;19;2;1521;-668;3002;-2192;4647;6840;2225
767127;2;19;2;1521;-426;2544;-2434;5656;6439;1556
767137;2;19;2;1521;-311;2694;-2905;6779;5979;1013
767147;2;19;2;1521;-51;2943;-3398;6936;5692;970
767157;2;19;2;1521;108;3125;-3661;5973;5531;772
767167;2;19;2;1521;104;3321;-3549;4439;5039;539
767177;2;19;2;1521;-118;3544;-3194;3099;4220;832
767187;2;19;2;1521;-155;3486;-2968;2687;3236;1308
767197;2;19;2;1521;1;3267;-2923;2700;2593;1781
767207;2;19;2;1521;245;3051;-3035;3095;2637;1916
767217;2;19;2;1521;441;2901;-3009;3409;2826;2241
767227;2;19;2;1521;699;2690;-3226;3444;2820;2419
767237;2;19;2;1521;764;2777;-3316;3326;3028;2273
767247;2;19;2;1521;985;2972;-3198;3176;3038;2041
767257;2;19;2;1521;1068;3205;-3135;2898;2773;1958
767267;2;19;2;1521;1198;3212;-3058;2744;2028;2157
767277;2;19;2;1521;1173;3110;-3036;2590;974;2476
767287;2;19;2;1521;940;3044;-3146;2234;446;2863
767297;2;19;2;1521;666;3056;-3186;1622;410;3025
767307;2;19;2;1521;349;3182;-3210;767;528;3331
767317;2;19;2;1521;202;3064;-3268;138;819;3683
767327;2;19;2;1521;393;2834;-2988;542;1415;3267
767337;2;19;2;1521;305;2949;-2966;1110;1914;2935
767347;2;19;2;1521;317;3040;-2929;1446;2039;3180
767357;2;19;2;1521;556;3182;-2963;1595;2058;3711
767367;2;19;2;1521;834;3309;-2876;1690;2089;4320
767377;2;19;2;1521;1238;3302;-2872;2075;2195;4442
767387;2;19;2;1521;1243;3326;-3303;2472;2594;4285
767397;2;19;2;1521;1429;3196;-3596;2417;3169;4122
767407;2;19;2;1521;1787;3028;-4084;2394;3721;3789
767417;2;19;2;1521;2083;2951;-4503;2434;4318;3352
767427;2;19;2;1522;2557;2783;-4762;2650;4670;2719
767437;2;19;2;1522;2895;2720;-4931;2579;4651;2345
767447;2;19;2;1522;3145;2600;-4844;1926;4083;2322
767457;2;19;2;1522;3150;2562;-4343;789;3119;2712
767467;2;19;2;1522;2993;2592;-3657;-278;1941;3520
767477;2;19;2;1522;2597;2690;-2899;-915;984;4514
767487;2;19;2;1522;2090;2948;-2229;-1009;630;5532
767497;2;19;2;1522;1662;3088;-1808;-487;1039;6145
767507;2;19;2;1522;1595;3054;-1796;167;2086;6013
767517;2;19;2;1522;1686;2945;-1946;383;3053;5007
767527;2;19;2;1522;1843;2750;-2169;288;3859;3150
767537;2;19;2;1522;1845;2628;-2487;115;4045;1570
767547;2;19;2;1522;1774;2554;-2930;-221;3979;127
767557;2;19;2;1522;1749;2424;-3135;-935;3552;-974
767567;2;19;2;1522;1665;2161;-3094;-1858;2732;-1598
767577;2;19;2;1522;1584;1829;-2870;-2623;1768;-1749
767587;2;19;2;1522;1410;1669;-2559;-2924;810;-1429
767597;2;19;2;1522;1232;1603;-2250;-2864;24;-623
767607;2;19;2;1522;1167;1556;-1975;-2481;-515;529
767617;2;19;2;1522;1326;1605;-1758;-1917;-1198;1746
767627;2;19;2;1522;1437;1842;-1880;-1496;-1806;2869
767637;2;19;2;1522;1655;2038;-2016;-1485;-1970;3562
767647;2;19;2;1522;1933;2266;-2058;-1789;-1942;3595
767657;2;19;2;1522;2265;2458;-2126;-1939;-2206;3091
767667;2;19;2;1522;2743;2539;-2319;-1940;-2954;2161
767677;2;19;2;1522;3168;2465;-2650;-2197;-3958;891
767687;2;19;2;1522;3032;2405;-2930;-3114;-4632;-345
767697;2;19;2;1522;2449;2375;-2768;-4515;-5253;-1186
767707;2;19;2;1522;1770;2387;-2450;-6052;-6418;-1565
767717;2;19;2;1522;1202;2450;-2322;-7346;-7188;-1252
767727;2;19;2;1522;895;2331;-1980;-7829;-7179;-484
767737;2;19;2;1522;800;2302;-1565;-6963;-6841;258
767747;2;19;2;1522;863;2396;-1483;-5563;-6651;921
767757;2;19;2;1522;1032;2410;-1660;-3528;-6288;1651
767767;2;19;2;1522;1280;2431;-1825;-1474;-5978;2166
767777;2;19;2;1522;1259;2676;-2108;-13;-5717;2497
767787;2;19;2;1522;1166;2968;-2348;374;-5630;2758
767797;2;19;2;1522;1154;3150;-2620;-218;-5599;3099
767807;2;19;2;1522;1261;3256;-2712;-1272;-5352;3289
767817;2;19;2;1522;1496;3283;-2655;-1877;-4844;3054
767827;2;19;2;1522;1785;3368;-2636;-1838;-3794;2039
767837;2;19;2;1522;1962;3595;-2521;-947;-2612;813
767847;2;19;2;1522;1968;3909;-2579;262;-1965;184
767857;2;19;2;1522;1962;4122;-2875;947;-1702;67
767867;2;19;2;1522;2079;4096;-3051;1155;-1413;-44
767877;2;19;2;1522;2308;4058;-2963;1538;-1183;-387
767887;2;19;2;1522;2341;4111;-2863;2227;-1069;-681
767897;2;19;2;1522;2228;4266;-2806;3054;-1209;-684
767907;2;19;2;1522;2105;4382;-2763;3830;-1402;-590
767917;2;19;2;1522;1873;4442;-2767;4490;-1444;-558
767927;2;19;2;1523;1513;4557;-2666;5018;-1412;-476
767937;2;19;2;1523;1247;4585;-2799;5370;-1381;-568
767947;2;19;2;1523;1131;4374;-3026;5550;-1021;-1224
767957;2;19;2;1523;965;4181;-3234;5671;-352;-2192
767967;2;19;2;1523;1038;3926;-3378;5802;437;-2718
767977;2;19;2;1523;1423;3422;-3345;6472;1274;-2630
767987;2;19;2;1523;2051;2912;-3213;7876;1940;-2288
767997;2;19;2;1523;2398;2395;-3224;9838;2174;-2302
768007;2;19;2;1523;2229;2092;-3545;11644;2100;-2602
768017;2;19;2;1523;1673;1930;-4299;12566;1956;-2867
768027;2;19;2;1523;848;2180;-4726;12257;1962;-2705
768037;2;19;2;1523;898;1969;-4811;10913;1731;-2100
768047;2;19;2;1523;1374;1710;-4609;9504;1273;-1664
768057;2;19;2;1523;1723;1445;-4715;8015;501;-1663
768067;2;19;2;1523;1929;1462;-4672;6464;-60;-1546
768077;2;19;2;1523;2216;1174;-4781;4673;-801;-1778
768087;2;19;2;1523;2345;1199;-4920;3034;-1438;-1979
768097;2;19;2;1523;2353;1285;-4978;1232;-1930;-2263
768107;2;19;2;1523;2135;1772;-4872;-248;-2194;-2567
768117;2;19;2;1523;2030;1942;-4628;-1147;-2462;-2546
768127;2;19;2;1523;1611;2417;-4322;-1855;-2679;-2481
768137;2;19;2;1523;1434;3104;-3729;-833;-2646;-1642
768147;2;19;2;1523;1671;2592;-3390;1882;-2580;-1312
768157;2;19;2;1523;1776;1913;-3709;3926;-2233;-2137
768167;2;19;2;1523;1661;1756;-4253;4124;-1858;-3190
768177;2;19;2;1523;1628;1782;-4587;2782;-1479;-3821
768187;2;19;2;1523;1691;1707;-4591;837;-1125;-4124
768197;2;19;2;1523;1735;1726;-4424;-1096;-944;-4004
768207;2;19;2;1523;1693;1720;-4020;-2794;-945;-3596
768217;2;19;2;1523;1709;1450;-3629;-4009;-981;-3378
768227;2;19;2;1523;1782;1287;-3262;-4405;-705;-3579
768237;2;19;2;1523;1732;1263;-3035;-4239;-355;-3961
768247;2;19;2;1523;1455;1452;-2822;-4158;172;-4228
768257;2;19;2;1523;1219;1583;-2619;-4170;784;-4076
768267;2;19;2;1523;1135;1510;-2475;-4126;1498;-3868
768277;2;19;2;1523;1115;1356;-2558;-4067;2443;-4127
768287;2;19;2;1523;1145;1210;-2619;-3631;3495;-4736
768297;2;19;2;1523;1262;1037;-2791;-2957;4450;-5352
768307;2;19;2;1523;1504;927;-2967;-2287;5110;-5859
768317;2;19;2;1523;1667;906;-3104;-1750;5380;-6076
768327;2;19;2;1523;1630;964;-3237;-1749;5216;-6339
768337;2;19;2;1523;1466;1128;-3264;-2171;4877;-6476
768347;2;19;2;1523;1254;1270;-3181;-2628;4540;-6424
768357;2;19;2;1523;976;1379;-2957;-2729;4321;-6127
768367;2;19;2;1523;705;1450;-2788;-2356;4170;-5655
768377;2;19;2;1523;398;1583;-2694;-1777;4133;-5159
768387;2;19;2;1523;181;1829;-2638;-1339;4280;-4421
768397;2;19;2;1523;157;1882;-2573;-868;4480;-3490
768407;2;19;2;1523;424;1874;-2553;-129;4600;-2647
768417;2;19;2;1523;780;1940;-2703;713;4572;-2143
768427;2;19;2;1524;1111;1995;-3150;967;4393;-1852
768437;2;19;2;1524;1395;2099;-3460;691;4000;-2014
768447;2;19;2;1524;1525;2077;-3665;-48;3647;-2491
768457;2;19;2;1524;1472;2072;-3743;-1075;3250;-3055
768467;2;19;2;1524;1317;2119;-3600;-2293;2767;-3190
768477;2;19;2;1524;1240;2068;-3405;-3517;2226;-2942
768487;2;19;2;1524;1111;1943;-3204;-4558;1847;-2563
768497;2;19;2;1524;1069;1784;-2861;-5225;1839;-2122
768507;2;19;2;1524;1067;1724;-2424;-5166;2038;-1710
768517;2;19;2;1524;1158;1712;-2112;-4446;2437;-1318
768527;2;19;2;1524;1296;1715;-1977;-3318;2981;-1195
768537;2;19;2;1524;1396;1896;-2002;-2070;3469;-1577
768547;2;19;2;1524;1452;2029;-2201;-512;3900;-2349
768557;2;19;2;1524;1379;2184;-2554;539;4387;-3435
768567;2;19;2;1524;1285;2313;-2725;843;4622;-4279
768577;2;19;2;1524;1175;2305;-2761;721;4433;-4580
768587;2;19;2;1524;1049;2193;-2636;602;4052;-4351
768597;2;19;2;1524;860;2091;-2457;838;3629;-3833
768607;2;19;2;1524;662;2219;-2231;1424;3170;-2971
768617;2;19;2;1524;402;2223;-2074;2179;2857;-1927
768627;2;19;2;1524;172;2264;-2043;2792;2748;-1241
768637;2;19;2;1524;191;2312;-2151;3567;2989;-744
768647;2;19;2;1524;376;2316;-2287;4464;3455;-1121
768657;2;19;2;1524;587;2157;-2590;5120;4173;-2013
768667;2;19;2;1524;802;2026;-2947;5121;4707;-3077
768677;2;19;2;1524;793;2018;-3336;4339;4951;-3728
768687;2;19;2;1524;747;2005;-3579;2839;4746;-3888
768697;2;19;2;1524;746;1810;-3540;1148;4198;-3612
768707;2;19;2;1524;670;1658;-3475;-205;3481;-3135
768717;2;19;2;1524;591;1492;-3372;-647;2906;-2587
768727;2;19;2;1524;513;1379;-3386;-675;2576;-2338
768737;2;19;2;1524;430;1443;-3446;-961;2412;-2302
768747;2;19;2;1524;299;1649;-3520;-1755;2313;-2167
768757;2;19;2;1524;292;1708;-3688;-2963;2508;-1975
768767;2;19;2;1524;636;1766;-3535;-3690;3310;-2393
768777;2;19;2;1524;973;2185;-2982;-2297;4079;-3139
768787;2;19;2;1524;1234;2501;-2967;374;4214;-3048
768797;2;19;2;1524;1381;2837;-3386;2312;4145;-2504
768807;2;19;2;1524;1477;3020;-3794;2566;3944;-1825
768817;2;19;2;1524;1795;3161;-3838;1949;3497;-1222
768827;2;19;2;1524;2337;3028;-3850;1478;2700;-366
768837;2;19;2;1524;2773;2727;-4013;1492;1831;262
768847;2;19;2;1524;3056;2565;-4110;1762;1303;426
768857;2;19;2;1524;3066;2558;-4066;1674;1048;191
768867;2;19;2;1524;2892;2618;-3703;1256;928;-164
768877;2;19;2;1524;2559;2755;-3263;523;706;124
768887;2;19;2;1524;2219;2589;-2833;90;622;1492
768897;2;19;2;1524;2093;1951;-2558;285;399;4042
768907;2;19;2;1524;2666;1310;-2862;242;384;6481
768917;2;19;2;1524;3358;1003;-3317;-1277;1269;6918
