timestamp;subject_id;activity;label;seq;ax;ay;az;gx;gy;gz
1032927;2;19;2;2053;1278;695;4022;-177;-52;-228
1032937;2;19;2;2053;1275;710;4012;-64;-121;-218
1032947;2;19;2;2053;1279;688;3985;31;-150;-228
1032957;2;19;2;2053;1259;712;3935;24;-144;-220
1032967;2;19;2;2053;1285;663;3947;21;-177;-215
1032977;2;19;2;2053;1300;676;3920;-12;-254;-216
1032987;2;19;2;2053;1303;656;3892;-77;-330;-196
1032997;2;19;2;2053;1321;647;3861;-138;-356;-212
1033007;2;19;2;2053;1306;644;3825;-192;-352;-247
1033017;2;19;2;2053;1292;622;3780;-277;-321;-283
1033027;2;19;2;2053;1261;652;3799;-438;-260;-292
1033037;2;19;2;2053;1238;663;3875;-616;-230;-284
1033047;2;19;2;2053;1268;693;3940;-702;-266;-236
1033057;2;19;2;2053;1281;702;4032;-667;-293;-220
1033067;2;19;2;2053;1291;695;4078;-564;-337;-203
1033077;2;19;2;2053;1274;675;4088;-443;-385;-192
1033087;2;19;2;2053;1244;663;4079;-359;-403;-188
1033097;2;19;2;2053;1184;693;4099;-274;-438;-144
1033107;2;19;2;2053;1191;684;4063;-129;-510;-37
1033117;2;19;2;2053;1208;686;4004;-50;-596;90
1033127;2;19;2;2053;1227;672;3977;-92;-622;181
1033137;2;19;2;2053;1264;676;4003;-127;-689;306
1033147;2;19;2;2053;1326;629;4070;-126;-804;325
1033157;2;19;2;2053;1379;650;4056;-168;-972;372
1033167;2;19;2;2053;1394;651;4025;-138;-1127;343
1033177;2;19;2;2053;1399;668;3963;-27;-1160;186
1033187;2;19;2;2053;1380;680;3944;68;-1128;62
1033197;2;19;2;2053;1413;659;3943;100;-1113;-29
1033207;2;19;2;2053;1461;643;3960;4;-1206;-85
1033217;2;19;2;2053;1506;648;3943;-100;-1368;-154
1033227;2;19;2;2053;1533;600;4012;-196;-1494;-211
1033237;2;19;2;2053;1487;623;4089;-214;-1720;-353
1033247;2;19;2;2053;1397;540;4008;-151;-1951;-527
1033257;2;19;2;2053;1316;704;4050;-255;-2093;-585
1033267;2;19;2;2053;1422;603;4145;-354;-2408;-479
1033277;2;19;2;2053;1482;777;4211;-470;-2711;-417
1033287;2;19;2;2053;1524;664;4316;-489;-2693;-400
1033297;2;19;2;2053;1345;881;4707;-559;-2828;-592
1033307;2;19;2;2053;1375;914;4999;144;-3138;-426
1033317;2;19;2;2053;1383;923;5164;1178;-3782;-118
1033327;2;19;2;2053;1504;850;5254;1907;-4782;267
1033337;2;19;2;2053;1574;848;5233;2418;-6142;745
1033347;2;19;2;2053;1786;754;5077;2534;-7634;1205
1033357;2;19;2;2053;1965;671;5005;2635;-9207;1436
1033367;2;19;2;2053;2085;713;4839;3397;-10414;1818
1033377;2;19;2;2053;2363;723;4668;4415;-11369;2162
1033387;2;19;2;2053;2665;552;4567;4983;-12021;2342
1033397;2;19;2;2053;2958;399;4322;4832;-12645;2298
1033407;2;19;2;2053;3166;458;4189;4292;-12878;2249
1033417;2;19;2;2053;3439;454;4211;3999;-13176;1991
1033427;2;19;2;2054;3630;632;4094;4283;-13647;1672
1033437;2;19;2;2054;3915;492;4076;5089;-14450;1510
1033447;2;19;2;2054;4075;446;3845;5526;-15680;1353
1033457;2;19;2;2054;4410;-248;3977;6053;-17451;1253
1033467;2;19;2;2054;5008;-292;2981;5847;-19562;625
1033477;2;19;2;2054;5335;-465;2479;4187;-20581;-662
1033487;2;19;2;2054;5582;-731;2178;3727;-20857;-2401
1033497;2;19;2;2054;5885;-621;1364;3914;-20646;-4160
1033507;2;19;2;2054;6148;-815;704;2901;-20188;-5536
1033517;2;19;2;2054;6352;-1055;428;937;-20074;-6757
1033527;2;19;2;2054;6239;-770;467;-1553;-20608;-7679
1033537;2;19;2;2054;5971;-389;742;-3833;-21550;-8199
1033547;2;19;2;2054;5554;-135;1274;-5355;-22212;-8472
1033557;2;19;2;2054;4896;-66;1332;-5425;-21664;-9126
1033567;2;19;2;2054;4683;185;758;-4396;-19543;-10518
1033577;2;19;2;2054;4836;123;8;-3331;-16686;-12581
1033587;2;19;2;2054;4990;198;-284;-2354;-14147;-14868
1033597;2;19;2;2054;5350;730;24;-2122;-13581;-16074
1033607;2;19;2;2054;5224;394;139;-1762;-15924;-15853
1033617;2;19;2;2054;4492;444;367;-1901;-18028;-15258
1033627;2;19;2;2054;3847;711;657;-3766;-19668;-14634
1033637;2;19;2;2054;3444;1050;873;-5149;-20887;-14499
1033647;2;19;2;2054;3287;1451;1395;-4332;-22315;-13742
1033657;2;19;2;2054;2407;1665;592;-3528;-23809;-12424
1033667;2;19;2;2054;1641;783;60;-3499;-22733;-12667
1033677;2;19;2;2054;957;1234;-635;-2726;-20327;-13361
1033687;2;19;2;2054;579;1312;-1121;-2576;-17597;-13040
1033697;2;19;2;2054;310;991;-1328;-3178;-14804;-12769
1033707;2;19;2;2054;787;1214;-1253;-4057;-12481;-12081
1033717;2;19;2;2054;1009;1767;-1397;-6116;-10717;-11269
1033727;2;19;2;2054;593;1615;-618;-8959;-9892;-10212
1033737;2;19;2;2054;829;1784;-320;-11281;-9567;-9975
1033747;2;19;2;2054;802;3062;213;-13191;-8232;-9637
1033757;2;19;2;2054;100;2984;1595;-13933;-8870;-7843
1033767;2;19;2;2054;-223;3006;1245;-12440;-8774;-6632
1033777;2;19;2;2054;-681;3551;585;-10502;-6179;-6090
1033787;2;19;2;2054;-577;3113;805;-8427;-2933;-6077
1033797;2;19;2;2054;-68;3443;699;-6138;-262;-6107
1033807;2;19;2;2054;279;3816;980;-5466;571;-5402
1033817;2;19;2;2054;831;3662;1067;-5692;-625;-3967
1033827;2;19;2;2054;1408;3959;406;-6264;-1947;-2745
1033837;2;19;2;2054;1504;4005;192;-6855;-2916;-2278
1033847;2;19;2;2054;1424;3913;16;-6633;-3611;-2489
1033857;2;19;2;2054;1300;4106;-281;-5967;-3358;-3137
1033867;2;19;2;2054;754;3891;-266;-5673;-2846;-3031
1033877;2;19;2;2054;516;3495;240;-6438;-2418;-3017
1033887;2;19;2;2054;206;3854;591;-7413;-3198;-2679
1033897;2;19;2;2054;216;3805;410;-7243;-3825;-1975
1033907;2;19;2;2054;372;3572;-32;-6760;-3019;-1970
1033917;2;19;2;2054;337;3638;-211;-7201;-1342;-2654
1033927;2;19;2;2055;307;3964;439;-8447;-235;-3011
1033937;2;19;2;2055;75;4363;1195;-9775;-596;-2635
1033947;2;19;2;2055;-151;4605;1473;-10498;-1060;-2259
1033957;2;19;2;2055;-185;4864;1578;-9391;-493;-2269
1033967;2;19;2;2055;-45;5094;1624;-6556;422;-2170
1033977;2;19;2;2055;584;4978;1616;-3060;1122;-2143
1033987;2;19;2;2055;1142;5034;1299;-374;1350;-2246
1033997;2;19;2;2055;1498;4817;990;1174;1060;-2324
1034007;2;19;2;2055;1765;4411;732;1815;626;-2684
1034017;2;19;2;2055;1804;4275;443;1897;266;-3070
1034027;2;19;2;2055;1601;4185;319;1535;-224;-3425
1034037;2;19;2;2055;1427;3902;232;900;-628;-3543
1034047;2;19;2;2055;1331;3766;227;516;-729;-3587
1034057;2;19;2;2055;1429;3742;350;59;-955;-3340
1034067;2;19;2;2055;1457;3686;608;-985;-1559;-3179
1034077;2;19;2;2055;1547;3558;847;-1992;-2195;-3326
1034087;2;19;2;2055;1419;3729;933;-2534;-2217;-3623
1034097;2;19;2;2055;1226;3661;1495;-2344;-2381;-3719
1034107;2;19;2;2055;979;3657;1692;-1448;-2835;-3660
1034117;2;19;2;2055;657;3791;1569;-557;-2987;-3534
1034127;2;19;2;2055;356;3815;1383;474;-2707;-3374
1034137;2;19;2;2055;267;3836;1334;1509;-2495;-2850
1034147;2;19;2;2055;103;4004;972;1886;-2453;-2263
1034157;2;19;2;2055;9;4077;754;1518;-2291;-1837
1034167;2;19;2;2055;83;4191;611;1005;-1902;-1470
1034177;2;19;2;2055;165;4256;648;591;-1527;-1012
1034187;2;19;2;2055;285;4198;737;173;-1320;-725
1034197;2;19;2;2055;325;4344;656;-413;-858;-693
1034207;2;19;2;2055;494;4454;910;-981;-535;-782
1034217;2;19;2;2055;389;4666;1405;-1572;-605;-432
1034227;2;19;2;2055;314;4645;1509;-1738;-1069;-47
1034237;2;19;2;2055;388;4437;1284;-1726;-1074;-36
1034247;2;19;2;2055;430;4580;1338;-1409;-191;-314
1034257;2;19;2;2055;555;4651;270;3;376;99
1034267;2;19;2;2055;744;4243;-188;1937;2843;-569
1034277;2;19;2;2055;301;4487;668;961;2871;-901
1034287;2;19;2;2055;-236;4594;1596;-476;2127;-225
1034297;2;19;2;2055;-935;4509;2522;2522;2361;388
1034307;2;19;2;2055;-577;4083;1946;5331;2452;508
1034317;2;19;2;2055;-427;3603;1638;5206;1499;709
1034327;2;19;2;2055;-746;3610;1259;3661;638;1446
1034337;2;19;2;2055;-667;2992;2737;3019;-232;1459
1034347;2;19;2;2055;-147;3926;-1607;2855;1277;1544
1034357;2;19;2;2055;463;2842;616;2155;3186;238
1034367;2;19;2;2055;202;3187;3124;2187;1616;-788
1034377;2;19;2;2055;-622;4906;2048;1857;-1576;458
1034387;2;19;2;2055;-120;3821;-11;1751;-1024;1188
1034397;2;19;2;2055;430;3041;-697;2405;917;552
1034407;2;19;2;2055;520;3349;-487;1811;2181;-484
1034417;2;19;2;2055;385;3887;384;351;2503;-947
1034427;2;19;2;2056;239;4098;1133;-22;2381;-1068
1034437;2;19;2;2056;312;3977;947;593;2205;-1154
1034447;2;19;2;2056;310;3916;368;1049;2685;-1633
1034457;2;19;2;2056;236;3761;23;1002;3626;-2317
1034467;2;19;2;2056;77;3527;168;500;4876;-3526
1034477;2;19;2;2056;-250;3525;790;-250;5303;-4896
1034487;2;19;2;2056;-319;3872;1001;-1465;3962;-6226
1034497;2;19;2;2056;145;4244;1064;-2603;2214;-6084
1034507;2;19;2;2056;743;4271;876;-1823;1936;-4642
1034517;2;19;2;2056;885;4561;757;-122;2018;-2947
1034527;2;19;2;2056;770;4459;575;684;1727;-1967
1034537;2;19;2;2056;455;4339;537;196;1259;-1921
1034547;2;19;2;2056;178;4364;507;-536;1061;-1608
1034557;2;19;2;2056;-98;4152;527;-697;1001;-1475
1034567;2;19;2;2056;-78;4603;890;-770;785;-412
1034577;2;19;2;2056;-124;4382;591;-848;478;477
1034587;2;19;2;2056;-323;4064;-96;-453;1689;331
1034597;2;19;2;2056;-256;3872;611;240;2460;-145
1034607;2;19;2;2056;-60;4138;315;492;1927;-143
1034617;2;19;2;2056;161;4149;82;221;1930;-227
1034627;2;19;2;2056;118;3806;302;-173;1954;-384
1034637;2;19;2;2056;91;3673;429;-120;1833;-870
1034647;2;19;2;2056;29;3965;423;156;1583;-1335
1034657;2;19;2;2056;202;4128;278;260;1338;-1472
1034667;2;19;2;2056;322;4209;379;-274;1037;-1522
1034677;2;19;2;2056;323;4165;252;-1313;225;-1347
1034687;2;19;2;2056;358;4056;307;-2311;-223;-1477
1034697;2;19;2;2056;289;4060;505;-2767;-190;-1508
1034707;2;19;2;2056;164;3984;660;-2101;35;-1396
1034717;2;19;2;2056;85;4057;574;-1134;457;-984
1034727;2;19;2;2056;-26;3898;404;-524;768;-479
1034737;2;19;2;2056;-248;3805;344;-415;1020;-252
1034747;2;19;2;2056;-240;3823;526;-346;862;46
1034757;2;19;2;2056;-157;3915;618;-206;767;527
1034767;2;19;2;2056;-151;4061;663;48;827;867
1034777;2;19;2;2056;46;4166;680;560;968;1409
1034787;2;19;2;2056;200;4265;375;1015;1029;1462
1034797;2;19;2;2056;-13;4282;201;1169;1241;1081
1034807;2;19;2;2056;100;4297;395;1033;988;638
1034817;2;19;2;2056;-18;4202;179;763;581;193
1034827;2;19;2;2056;-104;4088;122;626;574;-121
1034837;2;19;2;2056;-202;4069;136;788;722;-350
1034847;2;19;2;2056;-281;4083;98;761;774;-565
1034857;2;19;2;2056;-162;4128;145;365;641;-784
1034867;2;19;2;2056;-81;4124;120;-93;528;-867
1034877;2;19;2;2056;-45;4193;185;-288;670;-1078
1034887;2;19;2;2056;-107;4174;346;-153;641;-1212
1034897;2;19;2;2056;-85;4054;276;127;522;-1332
1034907;2;19;2;2056;-272;3847;235;325;568;-1590
1034917;2;19;2;2056;-629;3819;290;57;635;-1671
1034927;2;19;2;2057;-647;3789;134;-761;364;-1657
1034937;2;19;2;2057;-536;3863;-33;-1919;252;-1682
1034947;2;19;2;2057;-647;4053;102;-3617;273;-1292
1034957;2;19;2;2057;-898;4028;347;-5692;-156;-708
1034967;2;19;2;2057;-587;4054;563;-6064;-343;-572
1034977;2;19;2;2057;-531;4076;1009;-4919;-235;-416
1034987;2;19;2;2057;-652;4714;1356;-2347;-947;379
1034997;2;19;2;2057;-491;4303;910;-517;-1179;1397
1035007;2;19;2;2057;-540;3965;488;-607;-823;837
1035017;2;19;2;2057;-877;4106;765;-798;-625;408
1035027;2;19;2;2057;-953;3961;922;-418;-552;739
1035037;2;19;2;2057;-891;3801;768;237;-369;1030
1035047;2;19;2;2057;-702;3839;698;763;-146;1183
1035057;2;19;2;2057;-583;3980;795;1250;38;1520
1035067;2;19;2;2057;-547;4102;700;1654;189;1751
1035077;2;19;2;2057;-464;4219;472;1494;285;2207
1035087;2;19;2;2057;-310;4109;240;742;262;2431
1035097;2;19;2;2057;-95;4032;230;168;461;2157
1035107;2;19;2;2057;-214;4072;282;-183;256;1482
1035117;2;19;2;2057;-378;3925;307;-995;-332;821
1035127;2;19;2;2057;367;3886;92;-1997;-625;-713
1035137;2;19;2;2057;226;4046;91;-3918;-898;-2935
1035147;2;19;2;2057;-667;3865;774;-5323;-565;-3457
1035157;2;19;2;2057;-1004;3709;817;-5431;-458;-2980
1035167;2;19;2;2057;-908;3889;735;-4286;-192;-2432
1035177;2;19;2;2057;-654;4058;994;-2433;13;-2563
1035187;2;19;2;2057;-967;4054;1413;332;-337;-2214
1035197;2;19;2;2057;-1456;3508;843;1703;60;-1904
1035207;2;19;2;2057;667;4353;-785;127;-568;-3537
1035217;2;19;2;2057;-797;4446;1641;-2254;1167;-2815
1035227;2;19;2;2057;-1134;3666;1456;-1127;565;-2199
1035237;2;19;2;2057;-1202;3890;552;-449;928;-1542
1035247;2;19;2;2057;-956;3587;474;-588;1608;-1062
1035257;2;19;2;2057;-1152;3750;484;-875;2186;-578
1035267;2;19;2;2057;-1060;3570;618;-721;2414;-334
1035277;2;19;2;2057;-1313;3564;534;-568;2745;228
1035287;2;19;2;2057;-1245;3431;638;-389;3244;493
1035297;2;19;2;2057;-1181;3684;582;-510;3655;754
1035307;2;19;2;2057;-1071;3707;812;-947;3822;1099
1035317;2;19;2;2057;-752;3888;968;-1069;3632;1139
1035327;2;19;2;2057;-131;4323;1152;-236;3003;-100
1035337;2;19;2;2057;-108;3989;1220;236;2625;-457
1035347;2;19;2;2057;123;3792;1139;-137;1660;-312
1035357;2;19;2;2057;95;4557;1276;1274;401;-327
1035367;2;19;2;2057;70;4379;1350;3597;-660;126
1035377;2;19;2;2057;-79;4365;939;5479;-1462;343
1035387;2;19;2;2057;-298;4192;423;5924;-1656;570
1035397;2;19;2;2057;-569;4096;32;4930;-1451;823
1035407;2;19;2;2057;-854;4015;-199;3252;-1135;913
1035417;2;19;2;2057;-1128;4173;-155;1553;-831;979
1035427;2;19;2;2058;-1209;4213;141;284;-584;1162
1035437;2;19;2;2058;-1176;4279;429;-404;-355;1431
1035447;2;19;2;2058;-905;4327;807;-542;-225;1647
1035457;2;19;2;2058;-757;4362;1204;140;-102;1724
1035467;2;19;2;2058;-762;4316;1161;1043;-72;1753
1035477;2;19;2;2058;-710;4057;906;1176;-230;1715
1035487;2;19;2;2058;-697;3871;884;894;-217;1531
1035497;2;19;2;2058;-712;3805;961;903;-91;1423
1035507;2;19;2;2058;-695;3696;982;1051;131;1576
1035517;2;19;2;2058;-506;3521;977;1038;359;1613
1035527;2;19;2;2058;-318;3503;997;817;635;1531
1035537;2;19;2;2058;-284;3435;659;364;903;1523
1035547;2;19;2;2058;-182;3704;801;-769;694;1301
1035557;2;19;2;2058;-353;4214;634;-1279;61;941
1035567;2;19;2;2058;-698;4875;391;-1711;-208;1154
1035577;2;19;2;2058;-365;4281;639;-1577;-108;969
1035587;2;19;2;2058;-452;4103;520;-1121;75;467
1035597;2;19;2;2058;-626;4108;441;-1385;408;245
1035607;2;19;2;2058;-622;4112;567;-1933;624;261
1035617;2;19;2;2058;-343;4087;711;-2130;554;458
1035627;2;19;2;2058;-232;3901;960;-1267;572;1053
1035637;2;19;2;2058;-422;3842;992;249;521;743
1035647;2;19;2;2058;-585;3910;749;800;564;43
1035657;2;19;2;2058;-533;3937;683;162;730;-3
1035667;2;19;2;2058;-419;3970;791;-935;1075;546
1035677;2;19;2;2058;-463;4104;853;-1121;1358;924
1035687;2;19;2;2058;-446;4150;798;-1162;1557;866
1035697;2;19;2;2058;-441;4192;663;-1245;1724;683
1035707;2;19;2;2058;-412;4568;578;-1199;2004;815
1035717;2;19;2;2058;-226;4884;406;-823;2244;903
1035727;2;19;2;2058;57;4966;216;-740;2388;730
1035737;2;19;2;2058;348;4825;426;-1099;2427;674
1035747;2;19;2;2058;350;4406;531;-1014;2007;556
1035757;2;19;2;2058;66;3990;192;-741;1662;1
1035767;2;19;2;2058;-201;3877;-172;-461;1736;-693
1035777;2;19;2;2058;-436;3948;-148;-261;2139;-1120
1035787;2;19;2;2058;-443;3891;46;-319;2624;-938
1035797;2;19;2;2058;-296;3726;403;-608;3109;-495
1035807;2;19;2;2058;-318;4019;551;-648;3416;65
1035817;2;19;2;2058;-1703;3589;-1143;1480;5856;-799
1035827;2;19;2;2058;-430;4262;1758;1456;5003;496
1035837;2;19;2;2058;261;3671;889;-204;3902;959
1035847;2;19;2;2058;43;4046;875;-682;4103;671
1035857;2;19;2;2058;-492;4146;908;-690;4056;532
1035867;2;19;2;2058;-474;3877;871;-90;3769;570
1035877;2;19;2;2058;-283;3915;816;305;3189;300
1035887;2;19;2;2058;-160;3844;647;92;2957;26
1035897;2;19;2;2058;-163;3961;611;56;3067;-382
1035907;2;19;2;2058;-253;4184;396;188;3276;-467
1035917;2;19;2;2058;-286;4272;502;77;3431;-193
1035927;2;19;2;2059;-79;4222;516;225;3283;86
1035937;2;19;2;2059;140;4135;465;797;3162;242
1035947;2;19;2;2059;256;4186;389;1492;3190;304
1035957;2;19;2;2059;227;4385;323;2046;3250;328
1035967;2;19;2;2059;141;4556;83;2062;3303;393
1035977;2;19;2;2059;45;4574;-40;1737;3397;573
1035987;2;19;2;2059;2;4408;88;1586;3412;665
1035997;2;19;2;2059;-23;4219;105;1583;3337;665
1036007;2;19;2;2059;127;3989;-34;1888;3503;527
1036017;2;19;2;2059;153;3903;-6;2355;3868;245
1036027;2;19;2;2059;155;3985;-60;2299;4024;92
1036037;2;19;2;2059;264;4007;-165;2017;4236;217
1036047;2;19;2;2059;432;3872;-193;1763;4611;393
1036057;2;19;2;2059;563;3767;-129;1525;4957;448
1036067;2;19;2;2059;539;3738;103;1235;5093;585
1036077;2;19;2;2059;414;3713;325;889;5140;802
1036087;2;19;2;2059;264;3764;753;757;5046;1056
1036097;2;19;2;2059;238;3789;1146;974;4840;1294
1036107;2;19;2;2059;146;3709;828;954;4832;1605
1036117;2;19;2;2059;272;3796;1024;921;4835;1495
1036127;2;19;2;2059;243;3899;992;895;4585;1282
1036137;2;19;2;2059;257;4058;1017;570;3863;984
1036147;2;19;2;2059;313;4145;961;171;3363;612
1036157;2;19;2;2059;250;4277;1026;-103;3265;244
1036167;2;19;2;2059;144;4321;982;-218;3108;13
1036177;2;19;2;2059;163;4270;791;-504;3013;-143
1036187;2;19;2;2059;146;4287;611;-643;3027;-366
1036197;2;19;2;2059;98;4343;461;-723;3122;-440
1036207;2;19;2;2059;51;4314;423;-784;3160;-347
1036217;2;19;2;2059;111;4225;376;-886;3207;-217
1036227;2;19;2;2059;178;4038;447;-1072;3223;-200
1036237;2;19;2;2059;242;3914;599;-1043;3102;-203
1036247;2;19;2;2059;312;3767;649;-761;2884;-216
1036257;2;19;2;2059;272;3729;608;-542;2770;-274
1036267;2;19;2;2059;254;3803;579;-482;2696;-351
1036277;2;19;2;2059;232;3908;583;-515;2647;-386
1036287;2;19;2;2059;275;3945;578;-585;2647;-379
1036297;2;19;2;2059;323;3949;552;-651;2716;-378
1036307;2;19;2;2059;375;3947;599;-754;2793;-313
1036317;2;19;2;2059;410;3875;732;-792;2668;-229
1036327;2;19;2;2059;433;3826;729;-692;2531;-144
1036337;2;19;2;2059;440;3872;682;-668;2616;-139
1036347;2;19;2;2059;405;3948;652;-639;2725;-154
1036357;2;19;2;2059;349;4001;607;-634;2815;-266
1036367;2;19;2;2059;323;4171;496;-670;2921;-480
1036377;2;19;2;2059;257;4313;382;-740;3057;-583
1036387;2;19;2;2059;169;4326;311;-935;3156;-530
1036397;2;19;2;2059;12;4436;320;-1030;3270;-548
1036407;2;19;2;2059;-76;4671;344;-714;3304;-663
1036417;2;19;2;2059;-57;4739;229;-17;3254;-826
1036427;2;19;2;2060;-11;4495;-55;501;3178;-1107
1036437;2;19;2;2060;-158;4259;-430;430;3179;-1277
1036447;2;19;2;2060;-313;3957;-650;71;3226;-1209
1036457;2;19;2;2060;-370;3860;-834;-206;3510;-1214
1036467;2;19;2;2060;-406;4119;-897;-236;3973;-1267
1036477;2;19;2;2060;-381;4497;-649;-56;4330;-1220
1036487;2;19;2;2060;-238;4694;-368;177;4419;-1193
1036497;2;19;2;2060;-163;4838;-176;265;4394;-1298
1036507;2;19;2;2060;-234;4851;-83;-19;4193;-1302
1036517;2;19;2;2060;-397;4654;-67;-593;3896;-1069
1036527;2;19;2;2060;-542;4216;-62;-1105;3685;-807
1036537;2;19;2;2060;-681;3818;-68;-1220;3581;-764
1036547;2;19;2;2060;-767;3640;-30;-798;3539;-860
1036557;2;19;2;2060;-764;3656;106;11;3550;-991
1036567;2;19;2;2060;-650;3898;153;805;3580;-1114
1036577;2;19;2;2060;-517;4224;232;1079;3634;-1002
1036587;2;19;2;2060;-421;4338;417;909;3555;-840
1036597;2;19;2;2060;-393;4365;473;652;3426;-762
1036607;2;19;2;2060;-405;4334;426;448;3282;-670
1036617;2;19;2;2060;-452;4278;362;415;3184;-584
1036627;2;19;2;2060;-495;4223;230;540;3121;-508
1036637;2;19;2;2060;-593;4144;71;742;3098;-457
1036647;2;19;2;2060;-639;4040;-114;873;3239;-505
1036657;2;19;2;2060;-695;3947;-272;821;3402;-617
1036667;2;19;2;2060;-679;3807;-348;646;3560;-688
1036677;2;19;2;2060;-658;3716;-348;432;3710;-780
1036687;2;19;2;2060;-661;3736;-296;162;3839;-859
1036697;2;19;2;2060;-713;3820;-176;-78;3976;-893
1036707;2;19;2;2060;-696;3902;-36;-287;4100;-867
1036717;2;19;2;2060;-669;3948;153;-504;4208;-778
1036727;2;19;2;2060;-614;3963;377;-612;4276;-686
1036737;2;19;2;2060;-559;3931;543;-545;4224;-552
1036747;2;19;2;2060;-565;3865;576;-372;4163;-431
1036757;2;19;2;2060;-589;3794;530;-168;4138;-323
1036767;2;19;2;2060;-597;3754;417;-16;4141;-238
1036777;2;19;2;2060;-586;3767;345;5;4150;-193
1036787;2;19;2;2060;-619;3795;280;117;4213;-224
1036797;2;19;2;2060;-604;3878;208;339;4334;-252
1036807;2;19;2;2060;-514;3963;130;486;4452;-205
1036817;2;19;2;2060;-440;4016;19;505;4605;-162
1036827;2;19;2;2060;-397;4071;-100;243;4773;-71
1036837;2;19;2;2060;-312;4011;-161;-171;4847;97
1036847;2;19;2;2060;-329;3865;-276;-555;4978;196
1036857;2;19;2;2060;-478;3803;-295;-817;5241;294
1036867;2;19;2;2060;-583;3848;-290;-1023;5472;363
1036877;2;19;2;2060;-622;3901;-371;-1219;5744;434
1036887;2;19;2;2060;-580;3912;-430;-1458;6159;379
1036897;2;19;2;2060;-604;4020;-455;-1866;6671;148
1036907;2;19;2;2060;-637;4047;-466;-2490;7183;-112
1036917;2;19;2;2060;-723;3919;-557;-3124;7744;-349
1036927;2;19;2;2061;-796;3659;-640;-3659;8463;-470
1036937;2;19;2;2061;-680;3378;-479;-3937;8991;-459
1036947;2;19;2;2061;-421;3100;-494;-3189;9868;-693
1036957;2;19;2;2061;-120;3152;-266;-1686;11145;-1184
1036967;2;19;2;2061;392;3265;-481;51;11084;-1676
1036977;2;19;2;2061;582;3487;-1085;860;10638;-2779
1036987;2;19;2;2061;284;3860;-1367;-58;9748;-4126
1036997;2;19;2;2061;-323;4602;-1346;-2004;8934;-5010
1037007;2;19;2;2061;-710;5576;-942;-3373;8738;-4674
1037017;2;19;2;2061;-1135;6640;-237;-3781;8784;-3220
1037027;2;19;2;2061;-1262;6634;135;-2760;8719;-1480
1037037;2;19;2;2061;-1112;5991;-21;-1047;8771;-768
1037047;2;19;2;2061;-929;5283;-278;845;9048;-734
1037057;2;19;2;2061;-421;4498;-547;2441;9118;-837
1037067;2;19;2;2061;8;3925;-841;3322;9069;-1050
1037077;2;19;2;2061;190;3658;-1178;3490;9036;-1469
1037087;2;19;2;2061;97;3704;-1478;2411;8834;-1903
1037097;2;19;2;2061;-194;4061;-1693;116;8749;-1848
1037107;2;19;2;2061;-685;4458;-1566;-3089;8748;-1419
1037117;2;19;2;2061;-790;4604;-938;-6190;8701;-495
1037127;2;19;2;2061;-587;4585;137;-7830;8497;389
1037137;2;19;2;2061;-251;4474;1251;-6694;8167;1029
1037147;2;19;2;2061;56;4224;1251;-4040;7813;1269
1037157;2;19;2;2061;88;3966;839;-2679;7564;1362
1037167;2;19;2;2061;34;3771;629;-2533;7357;1449
1037177;2;19;2;2061;52;3618;632;-2484;7162;1451
1037187;2;19;2;2061;84;3523;519;-2267;6961;1311
1037197;2;19;2;2061;102;3546;414;-2074;6800;1133
1037207;2;19;2;2061;70;3646;285;-1626;6723;996
1037217;2;19;2;2061;85;3776;5;-1060;6740;938
1037227;2;19;2;2061;87;3899;-209;-679;6830;879
1037237;2;19;2;2061;83;4230;-281;-570;6889;866
1037247;2;19;2;2061;143;4493;-269;-904;6863;1058
1037257;2;19;2;2061;169;4564;-149;-1450;6747;1190
1037267;2;19;2;2061;204;4524;-3;-1956;6549;1262
1037277;2;19;2;2061;158;4410;95;-2458;6225;1217
1037287;2;19;2;2061;42;4328;176;-2966;5926;1194
1037297;2;19;2;2061;-86;4205;289;-3209;5652;1414
1037307;2;19;2;2061;-101;4022;414;-3115;5390;1561
1037317;2;19;2;2061;25;3835;446;-2647;5137;1498
1037327;2;19;2;2061;-5;3847;385;-2108;4915;1273
1037337;2;19;2;2061;-49;3846;280;-1754;4705;1123
1037347;2;19;2;2061;-163;4046;241;-1771;4569;1131
1037357;2;19;2;2061;-197;4069;316;-1836;4341;1152
1037367;2;19;2;2061;-101;4085;419;-1774;4081;1036
1037377;2;19;2;2061;50;4066;554;-1673;3724;959
1037387;2;19;2;2061;279;4017;676;-1575;3192;1020
1037397;2;19;2;2061;545;3773;727;-1160;2532;1002
1037407;2;19;2;2061;515;3686;665;-707;1903;602
1037417;2;19;2;2061;437;3842;658;-602;1297;358
1037427;2;19;2;2062;349;3932;691;-481;559;147
1037437;2;19;2;2062;251;3891;626;-283;33;39
1037447;2;19;2;2062;213;3993;603;-67;-406;-49
1037457;2;19;2;2062;241;4064;731;28;-916;-24
1037467;2;19;2;2062;314;4089;689;98;-1429;90
1037477;2;19;2;2062;408;3991;787;133;-1895;127
1037487;2;19;2;2062;381;3855;787;373;-2421;81
1037497;2;19;2;2062;397;3750;680;771;-3011;32
1037507;2;19;2;2062;393;3756;533;940;-3536;60
1037517;2;19;2;2062;429;3821;519;1063;-3868;-6
1037527;2;19;2;2062;517;3943;582;1300;-4148;-140
1037537;2;19;2;2062;602;3972;664;1511;-4473;-224
1037547;2;19;2;2062;659;4034;720;1705;-4869;-320
1037557;2;19;2;2062;571;4134;805;1870;-5272;-360
1037567;2;19;2;2062;402;4161;733;2008;-5685;-392
1037577;2;19;2;2062;250;4207;677;2219;-5970;-383
1037587;2;19;2;2062;176;4107;611;2617;-6179;-483
1037597;2;19;2;2062;56;3981;522;3143;-6381;-620
1037607;2;19;2;2062;59;3855;437;3614;-6739;-712
1037617;2;19;2;2062;97;3786;359;4029;-7137;-809
1037627;2;19;2;2062;83;3732;240;4321;-7583;-839
1037637;2;19;2;2062;106;3719;48;4579;-7923;-848
1037647;2;19;2;2062;133;3826;-115;4756;-8340;-779
1037657;2;19;2;2062;215;3864;-306;4790;-8933;-509
1037667;2;19;2;2062;375;3838;-530;4677;-9455;-160
1037677;2;19;2;2062;502;3772;-713;4646;-10024;118
1037687;2;19;2;2062;377;3583;-878;4645;-10475;261
1037697;2;19;2;2062;148;3639;-982;4596;-10729;402
1037707;2;19;2;2062;53;3628;-937;4725;-10873;499
1037717;2;19;2;2062;14;3699;-782;5074;-11116;516
1037727;2;19;2;2062;51;3854;-648;5341;-11482;839
1037737;2;19;2;2062;205;3889;-594;5449;-12030;1321
1037747;2;19;2;2062;299;3901;-769;5501;-12536;1625
1037757;2;19;2;2062;282;3878;-877;5522;-12810;1602
1037767;2;19;2;2062;91;3998;-1064;5666;-12964;1509
1037777;2;19;2;2062;-366;4054;-1393;5809;-12970;1475
1037787;2;19;2;2062;-928;4208;-1744;5955;-12673;1583
1037797;2;19;2;2062;-1275;4469;-1932;6238;-12222;1795
1037807;2;19;2;2062;-1353;4624;-2093;6449;-11695;2024
1037817;2;19;2;2062;-1241;4546;-2184;6252;-11250;2115
1037827;2;19;2;2062;-1112;4376;-2152;5681;-10974;2218
1037837;2;19;2;2062;-970;4157;-2036;5062;-10815;2289
1037847;2;19;2;2062;-957;4008;-1790;4738;-10587;2132
1037857;2;19;2;2062;-1124;3985;-1482;4874;-10326;1720
1037867;2;19;2;2062;-1332;4034;-1190;5204;-10042;1288
1037877;2;19;2;2062;-1442;4030;-920;5419;-9849;1068
1037887;2;19;2;2062;-1416;3933;-855;5264;-9791;1106
1037897;2;19;2;2062;-1241;3788;-880;4766;-9910;1131
1037907;2;19;2;2062;-1018;3607;-896;4220;-10138;1011
1037917;2;19;2;2062;-1098;3457;-908;3933;-10300;812
1037927;2;19;2;2063;-1306;3408;-886;3873;-10379;791
1037937;2;19;2;2063;-1409;3328;-908;4078;-10351;874
1037947;2;19;2;2063;-1354;3229;-909;4338;-10164;884
1037957;2;19;2;2063;-1094;3228;-896;4496;-9963;926
1037967;2;19;2;2063;-742;3088;-937;4523;-9804;1037
1037977;2;19;2;2063;-561;2916;-934;4506;-9606;1061
1037987;2;19;2;2063;-541;2872;-983;4533;-9416;1188
1037997;2;19;2;2063;-604;2750;-1023;4589;-9250;1346
1038007;2;19;2;2063;-855;2776;-1138;4967;-8906;1681
1038017;2;19;2;2063;-933;2935;-1270;5286;-8457;2045
1038027;2;19;2;2063;-697;3031;-1360;5416;-8094;2434
1038037;2;19;2;2063;-463;2978;-1468;5608;-7647;2712
1038047;2;19;2;2063;-282;2976;-1615;5715;-7136;2847
1038057;2;19;2;2063;-23;2745;-1725;5786;-6638;2990
1038067;2;19;2;2063;132;2457;-1745;5891;-6114;2833
1038077;2;19;2;2063;228;2347;-1749;5860;-5572;2597
1038087;2;19;2;2063;352;2186;-1785;5705;-5042;2336
1038097;2;19;2;2063;348;1994;-1819;5384;-4542;1907
1038107;2;19;2;2063;70;2083;-1896;4914;-4132;1740
1038117;2;19;2;2063;-95;2461;-1838;4274;-3815;2027
1038127;2;19;2;2063;-46;2779;-1748;3564;-3562;2658
1038137;2;19;2;2063;-94;3288;-1586;3226;-3176;3501
1038147;2;19;2;2063;67;3221;-1616;3056;-2754;4012
1038157;2;19;2;2063;153;3168;-1698;3248;-2144;3986
1038167;2;19;2;2063;119;3205;-1794;3633;-1503;3945
1038177;2;19;2;2063;65;3142;-1785;3618;-951;4017
1038187;2;19;2;2063;61;2932;-1882;3415;-509;3981
1038197;2;19;2;2063;-102;2786;-1949;3507;-187;3926
1038207;2;19;2;2063;-136;2598;-1993;3768;-141;3919
1038217;2;19;2;2063;-66;2701;-2094;3716;-108;3603
1038227;2;19;2;2063;-69;3199;-1971;3162;-42;3236
1038237;2;19;2;2063;-293;3621;-1922;2492;95;3224
1038247;2;19;2;2063;-530;3843;-1836;2139;310;3420
1038257;2;19;2;2063;-482;3850;-1929;1916;521;3768
1038267;2;19;2;2063;-164;3291;-1964;1792;691;4225
1038277;2;19;2;2063;133;2557;-1915;1908;730;4355
1038287;2;19;2;2063;314;2095;-1881;2283;553;4307
1038297;2;19;2;2063;312;1936;-1742;2508;196;4241
1038307;2;19;2;2063;115;1988;-1499;2100;-212;3968
1038317;2;19;2;2063;-219;2295;-1098;1334;-530;3628
1038327;2;19;2;2063;-461;2513;-618;1249;-819;3473
1038337;2;19;2;2063;-634;2497;-447;1720;-1067;3541
1038347;2;19;2;2063;-612;2204;-467;2227;-1363;3770
1038357;2;19;2;2063;-250;1911;-481;2519;-1721;3960
1038367;2;19;2;2063;111;1764;-670;2510;-1961;4080
1038377;2;19;2;2063;391;1663;-1086;2209;-1927;4137
1038387;2;19;2;2063;454;1493;-1416;1589;-1765;3876
1038397;2;19;2;2063;354;1770;-1521;1079;-1702;3481
1038407;2;19;2;2063;464;2152;-1379;1222;-1779;3229
1038417;2;19;2;2063;484;2435;-1432;1337;-1885;2795
1038427;2;19;2;2064;682;2716;-1367;979;-1969;2284
1038437;2;19;2;2064;856;2686;-1206;448;-2231;1771
1038447;2;19;2;2064;859;2881;-1409;-495;-2485;1429
1038457;2;19;2;2064;1003;3179;-1681;-1864;-2782;1648
1038467;2;19;2;2064;1302;3161;-1826;-2769;-3116;1655
1038477;2;19;2;2064;1374;3320;-2224;-2847;-3299;1259
1038487;2;19;2;2064;1481;3340;-2604;-2637;-3258;922
1038497;2;19;2;2064;1462;3429;-2658;-2448;-3198;253
1038507;2;19;2;2064;1510;3384;-2794;-2428;-3467;-408
1038517;2;19;2;2064;1236;3375;-2886;-3185;-3924;-1031
1038527;2;19;2;2064;855;3467;-2675;-3558;-4355;-1543
1038537;2;19;2;2064;490;3534;-2878;-3338;-4254;-1802
1038547;2;19;2;2064;581;3345;-2934;-3208;-4017;-1715
1038557;2;19;2;2064;596;3131;-3128;-2938;-3986;-1670
1038567;2;19;2;2064;768;3292;-3525;-2301;-4290;-1869
1038577;2;19;2;2064;995;3521;-4200;-2436;-4473;-2916
1038587;2;19;2;2064;985;4353;-3783;-2683;-4894;-3973
1038597;2;19;2;2064;1069;4189;-3498;-1401;-5471;-4847
1038607;2;19;2;2064;656;4014;-4537;-1975;-6054;-5367
1038617;2;19;2;2064;116;3343;-5743;-3050;-6091;-6281
1038627;2;19;2;2064;-661;3070;-6664;-2738;-5507;-7844
1038637;2;19;2;2064;-627;2891;-7161;-1852;-4794;-9312
1038647;2;19;2;2064;-458;2906;-5922;-1139;-4469;-10527
1038657;2;19;2;2064;-430;3759;-3323;823;-4957;-11081
1038667;2;19;2;2064;-221;4380;-1375;2156;-6156;-9514
1038677;2;19;2;2064;-226;3916;-1090;-1069;-7789;-7234
1038687;2;19;2;2064;-412;2184;-214;-5459;-9855;-9355
1038697;2;19;2;2064;-3088;1683;423;-4451;-11168;-15075
1038707;2;19;2;2064;-6144;2182;-1408;-253;-11629;-20410
1038717;2;19;2;2064;-8557;5726;-4085;4930;-11163;-23078
1038727;2;19;2;2064;-10558;8897;-8270;4971;-7948;-19207
1038737;2;19;2;2064;-7394;11569;-8500;-1031;-1539;-9663
1038747;2;19;2;2064;-2806;11256;-7726;-9339;1634;6465
1038757;2;19;2;2064;2904;11274;-7519;-15199;-6349;13199
1038767;2;19;2;2064;2712;11226;-6091;-17955;-11226;15
1038777;2;19;2;2064;-2161;9019;-4328;-26210;-9018;-24325
1038787;2;19;2;2064;-11636;6708;11157;-30320;-9016;-30932
1038797;2;19;2;2064;-11258;1354;9142;6847;-8721;-14946
1038807;2;19;2;2064;-6422;-5013;-1278;-3496;-6477;1908
1038817;2;19;2;2064;-3676;-8201;4527;-3010;-6448;2655
1038827;2;19;2;2064;-1972;-6743;729;7298;-5813;-5268
1038837;2;19;2;2064;-815;-1469;-3186;9304;-4110;-10425
1038847;2;19;2;2064;903;1821;-4097;4419;-2721;-9967
1038857;2;19;2;2064;1566;3811;-2187;-763;-1367;-7982
1038867;2;19;2;2064;1495;3522;834;-3498;-1068;-4417
1038877;2;19;2;2064;855;1665;995;-3699;-1795;-5298
1038887;2;19;2;2064;-2245;933;512;-3950;-492;-8459
1038897;2;19;2;2064;-4397;1356;244;-4591;1444;-9879
1038907;2;19;2;2064;-13399;2387;-1172;-3947;4110;-9120
1038917;2;19;2;2064;-6095;2287;-1845;-4652;5532;-4476
1038927;2;19;2;2065;-1712;1375;-1783;-7581;3901;-1264
1038937;2;19;2;2065;-166;-420;-443;-10696;1969;-1670
1038947;2;19;2;2065;68;-1614;1136;-12418;-818;-5987
1038957;2;19;2;2065;-887;-1171;1821;-11914;-3824;-10455
1038967;2;19;2;2065;-2912;-618;2014;-9765;-6643;-12095
1038977;2;19;2;2065;-6335;412;1203;-8433;-7978;-10281
1038987;2;19;2;2065;-8148;720;684;-8203;-7242;-5725
1038997;2;19;2;2065;-9150;792;884;-8540;-6185;-2220
1039007;2;19;2;2065;-9264;875;1695;-9209;-6284;-509
1039017;2;19;2;2065;-6469;-523;3244;-7061;-6630;-722
1039027;2;19;2;2065;-4518;-1180;2569;-4089;-7945;-3991
1039037;2;19;2;2065;-3717;-707;1398;-2177;-8560;-7004
1039047;2;19;2;2065;-3938;17;341;-3141;-8721;-8433
1039057;2;19;2;2065;-4808;1093;99;-4506;-8134;-9020
1039067;2;19;2;2065;-5809;1969;254;-3488;-7195;-9027
1039077;2;19;2;2065;-6659;2155;16;-2495;-5628;-8175
1039087;2;19;2;2065;-5749;1636;-617;-4188;-4271;-7238
1039097;2;19;2;2065;-3913;40;-210;-7480;-3977;-7795
1039107;2;19;2;2065;-2996;-1304;1070;-9851;-3973;-10030
1039117;2;19;2;2065;-2930;-1619;2017;-9836;-4145;-12102
1039127;2;19;2;2065;-2706;-1611;2119;-7735;-4498;-13043
1039137;2;19;2;2065;-2964;-1266;1993;-5706;-5255;-12967
1039147;2;19;2;2065;-4615;-162;1559;-5504;-5632;-10846
1039157;2;19;2;2065;-6225;140;822;-7773;-5427;-6741
1039167;2;19;2;2065;-7518;-157;756;-11978;-4893;-2871
1039177;2;19;2;2065;-8181;-337;1902;-15172;-4919;444
1039187;2;19;2;2065;-7927;-1662;3059;-14636;-5071;3394
1039197;2;19;2;2065;-6796;-2994;4034;-11771;-3978;4763
1039207;2;19;2;2065;-4166;-3617;5079;-5119;-1354;4839
1039217;2;19;2;2065;-1425;-2923;5302;138;-235;3347
1039227;2;19;2;2065;-54;-1437;4751;1560;-859;1872
1039237;2;19;2;2065;-569;-531;4051;2106;-1937;1451
1039247;2;19;2;2065;-1602;-456;3480;3506;-2656;1500
1039257;2;19;2;2065;-2358;-639;2463;5761;-3068;1181
1039267;2;19;2;2065;-3028;-1201;1766;8020;-2909;118
1039277;2;19;2;2065;-3767;-998;1421;9667;-2602;-776
1039287;2;19;2;2065;-3602;-367;1024;10472;-1684;-830
1039297;2;19;2;2065;-2650;3;1145;9271;-781;-912
1039307;2;19;2;2065;-2441;2131;1306;6200;-263;-388
1039317;2;19;2;2065;-2160;2383;1024;2736;-373;760
1039327;2;19;2;2065;-2415;2054;778;-1272;89;1282
1039337;2;19;2;2065;-3064;1381;987;-4187;755;1044
1039347;2;19;2;2065;-3815;729;1010;-5698;1407;887
1039357;2;19;2;2065;-4443;-205;1067;-6097;2204;1165
1039367;2;19;2;2065;-4612;-1298;1489;-5375;3255;969
1039377;2;19;2;2065;-4425;-1857;2340;-3695;3938;168
1039387;2;19;2;2065;-4234;-1863;2722;-1051;4249;-291
1039397;2;19;2;2065;-4207;-1189;2936;1835;4387;-262
1039407;2;19;2;2065;-4014;-322;2551;3935;3925;239
1039417;2;19;2;2065;-3714;168;1991;4359;3321;917
1039427;2;19;2;2066;-3725;579;1397;3594;3128;1081
1039437;2;19;2;2066;-3599;700;945;2856;3128;950
1039447;2;19;2;2066;-3459;591;693;2397;2718;188
1039457;2;19;2;2066;-3562;593;383;1898;2322;-468
1039467;2;19;2;2066;-3660;557;88;1268;1938;-386
1039477;2;19;2;2066;-3877;162;-295;270;1762;7
1039487;2;19;2;2066;-4197;-51;-64;-1615;1846;130
1039497;2;19;2;2066;-4246;270;769;-4026;1841;279
1039507;2;19;2;2066;-3846;603;1536;-4924;1806;598
1039517;2;19;2;2066;-3396;638;2150;-2614;1765;434
1039527;2;19;2;2066;-3553;509;2162;1011;1817;-211
1039537;2;19;2;2066;-4069;441;1716;1749;2159;-682
1039547;2;19;2;2066;-4306;663;1495;-1367;2701;-468
1039557;2;19;2;2066;-4302;656;1718;-5346;3153;160
1039567;2;19;2;2066;-4315;192;2021;-6875;3369;598
1039577;2;19;2;2066;-4359;-389;2072;-5064;3490;525
1039587;2;19;2;2066;-4358;-1076;1786;-2041;3283;206
1039597;2;19;2;2066;-4269;-1018;1298;1106;3290;84
1039607;2;19;2;2066;-4270;-732;910;4120;3805;279
1039617;2;19;2;2066;-4373;-215;465;5438;4239;328
1039627;2;19;2;2066;-4241;167;-118;4142;4195;338
1039637;2;19;2;2066;-4385;-26;-258;927;4451;380
1039647;2;19;2;2066;-4714;126;551;-2865;4570;813
1039657;2;19;2;2066;-4677;504;1636;-5071;3797;1939
1039667;2;19;2;2066;-4296;476;2410;-5169;2508;3401
1039677;2;19;2;2066;-3827;152;2449;-3451;1211;4784
1039687;2;19;2;2066;-3574;-201;1781;-1019;594;5724
1039697;2;19;2;2066;-3751;-506;1064;327;316;5510
1039707;2;19;2;2066;-4165;-829;-29;147;600;4454
1039717;2;19;2;2066;-5306;-812;-887;-708;1471;3684
1039727;2;19;2;2066;-5724;-592;-1395;-1217;2522;3608
1039737;2;19;2;2066;-5182;-699;-1101;-936;3360;3357
1039747;2;19;2;2066;-4324;-648;-364;-487;3600;2653
1039757;2;19;2;2066;-3738;-457;128;5;3265;2509
1039767;2;19;2;2066;-3538;-84;341;748;2640;2819
1039777;2;19;2;2066;-4017;388;509;1833;2066;3477
1039787;2;19;2;2066;-4478;719;327;2554;1627;4210
1039797;2;19;2;2066;-4648;765;-90;2894;1578;4406
1039807;2;19;2;2066;-4784;677;-281;3483;2067;4324
1039817;2;19;2;2066;-4623;453;-314;4535;2881;4010
1039827;2;19;2;2066;-4496;364;-42;5905;3489;3524
1039837;2;19;2;2066;-4283;484;166;7063;3461;3240
1039847;2;19;2;2066;-3984;841;339;7855;3107;3641
1039857;2;19;2;2066;-3650;1125;399;8278;2628;4396
1039867;2;19;2;2066;-3487;1365;398;8691;2235;5148
1039877;2;19;2;2066;-3511;1474;610;9381;1994;5683
1039887;2;19;2;2066;-3661;1557;781;10178;1811;6023
1039897;2;19;2;2066;-3754;1559;648;10883;1911;6470
1039907;2;19;2;2066;-3657;1372;569;11767;2203;6385
1039917;2;19;2;2066;-3572;959;278;11994;2223;5572
1039927;2;19;2;2067;-3370;880;-25;11186;2240;4745
1039937;2;19;2;2067;-2857;665;-289;10191;2043;4565
1039947;2;19;2;2067;-2509;26;-49;7438;1827;3775
1039957;2;19;2;2067;-2339;894;-437;5821;1399;4173
1039967;2;19;2;2067;-2496;1619;-853;5153;735;5272
1039977;2;19;2;2067;-2716;1886;-1131;5016;283;6201
1039987;2;19;2;2067;-3031;2264;-1180;5479;427;6517
1039997;2;19;2;2067;-3104;2484;-1120;6776;550;6689
1040007;2;19;2;2067;-3131;2775;-1290;7511;738;6326
1040017;2;19;2;2067;-3021;2873;-1349;7375;979;5967
1040027;2;19;2;2067;-2956;2995;-1078;6901;1039;5617
1040037;2;19;2;2067;-2720;2860;-749;6713;761;5218
1040047;2;19;2;2067;-2643;2870;-428;7064;360;4858
1040057;2;19;2;2067;-2745;2888;-249;7892;-22;4843
1040067;2;19;2;2067;-2786;2906;-311;8513;-136;4988
1040077;2;19;2;2067;-2933;2852;-531;9175;-42;5232
1040087;2;19;2;2067;-3385;2823;-770;9610;239;5619
1040097;2;19;2;2067;-3882;2644;-996;9861;773;6142
1040107;2;19;2;2067;-4203;2440;-1056;10129;1424;6561
1040117;2;19;2;2067;-4164;2178;-1076;10718;1821;6627
1040127;2;19;2;2067;-3813;1893;-1073;11540;2116;6128
1040137;2;19;2;2067;-3414;1667;-1104;11930;2099;5407
1040147;2;19;2;2067;-2891;1335;-1140;11942;1880;4440
1040157;2;19;2;2067;-2571;1042;-1130;11475;1706;3167
1040167;2;19;2;2067;-2703;1059;-1362;10592;1422;2063
1040177;2;19;2;2067;-3015;903;-1744;9528;1264;1640
1040187;2;19;2;2067;-3419;750;-2016;8189;1247;1374
1040197;2;19;2;2067;-3934;957;-2280;6422;1437;1705
1040207;2;19;2;2067;-4231;1317;-2385;4278;1685;3075
1040217;2;19;2;2067;-4285;1751;-2424;1967;1853;5074
1040227;2;19;2;2067;-4026;2205;-2293;-147;1858;7212
1040237;2;19;2;2067;-3479;2498;-2092;-1599;1594;8906
1040247;2;19;2;2067;-2771;2731;-1804;-2155;1231;9735
1040257;2;19;2;2067;-2236;2844;-1538;-1889;708;9663
1040267;2;19;2;2067;-1890;2864;-1518;-786;265;8827
1040277;2;19;2;2067;-1773;2935;-1521;977;-14;7587
1040287;2;19;2;2067;-1859;2943;-1571;3125;-161;6279
1040297;2;19;2;2067;-1931;2805;-1838;5132;-183;5034
1040307;2;19;2;2067;-2056;2689;-2276;6692;-104;3952
1040317;2;19;2;2067;-2381;2675;-2684;7499;239;3307
1040327;2;19;2;2067;-2741;2778;-2966;7447;744;3405
1040337;2;19;2;2067;-2839;2719;-3108;6793;1290;4059
1040347;2;19;2;2067;-2771;2502;-3136;6079;1737;4519
1040357;2;19;2;2067;-2587;2342;-3000;5278;2121;4529
1040367;2;19;2;2067;-2392;2347;-2872;4575;2417;4214
1040377;2;19;2;2067;-2158;2389;-2722;4088;2591;3770
1040387;2;19;2;2067;-2074;2498;-2705;3822;2505;3252
1040397;2;19;2;2067;-2061;2550;-2812;3497;2389;2724
1040407;2;19;2;2067;-2248;2709;-2812;3019;2369;2269
1040417;2;19;2;2067;-2444;2723;-2702;2509;2405;2214
1040427;2;19;2;2068;-2516;2608;-2540;2090;2409;2183
1040437;2;19;2;2068;-2580;2688;-2419;1748;2384;2211
1040447;2;19;2;2068;-2441;2732;-2378;1582;2184;2472
1040457;2;19;2;2068;-2301;2706;-2387;1531;1881;2641
1040467;2;19;2;2068;-2409;2744;-2344;1385;1686;2700
1040477;2;19;2;2068;-2643;2794;-2331;1213;1624;2795
1040487;2;19;2;2068;-2716;2815;-2175;1142;1729;2910
1040497;2;19;2;2068;-2651;3073;-1996;1156;1560;3134
1040507;2;19;2;2068;-2299;3294;-2059;1222;978;3503
1040517;2;19;2;2068;-1975;3317;-2077;1348;220;3566
1040527;2;19;2;2068;-2135;3370;-2173;1588;-615;3321
1040537;2;19;2;2068;-2622;3660;-2473;1859;-1244;3303
1040547;2;19;2;2068;-3052;3911;-2743;2243;-1644;3632
1040557;2;19;2;2068;-3594;4010;-2851;2814;-1754;4355
1040567;2;19;2;2068;-3964;3699;-2744;3532;-1381;5552
1040577;2;19;2;2068;-4010;3154;-2541;4185;-727;6403
1040587;2;19;2;2068;-3766;2644;-2314;4722;-20;6471
1040597;2;19;2;2068;-3292;2446;-2234;5192;508;6087
1040607;2;19;2;2068;-2781;2553;-2466;5463;755;5668
1040617;2;19;2;2068;-2489;2497;-2677;5599;1213;5337
1040627;2;19;2;2068;-2351;2289;-2568;5931;1758;4871
1040637;2;19;2;2068;-2364;2140;-2668;6578;1986;4251
1040647;2;19;2;2068;-2367;2020;-2984;6956;2131;4085
1040657;2;19;2;2068;-2369;1888;-3317;6918;2492;4370
1040667;2;19;2;2068;-2596;1822;-3459;6222;3090;5316
1040677;2;19;2;2068;-2773;1759;-3463;5326;3560;6841
1040687;2;19;2;2068;-2525;1390;-3174;4616;3765;8215
1040697;2;19;2;2068;-2052;1059;-2853;4118;3714;8891
1040707;2;19;2;2068;-1430;1041;-2793;3671;3235;8971
1040717;2;19;2;2068;-823;1155;-2908;3114;2431;8834
1040727;2;19;2;2068;-449;1188;-2855;2483;1417;8656
1040737;2;19;2;2068;-306;1216;-2888;1847;137;8472
1040747;2;19;2;2068;-442;1191;-2852;1561;-1168;8641
1040757;2;19;2;2068;-701;1026;-2774;1590;-2131;9031
1040767;2;19;2;2068;-1000;883;-2757;1561;-2866;9629
1040777;2;19;2;2068;-1148;513;-2652;1553;-3465;10125
1040787;2;19;2;2068;-1209;334;-2666;1498;-4031;10294
1040797;2;19;2;2068;-1076;131;-2767;1329;-4438;10161
1040807;2;19;2;2068;-828;-83;-2681;977;-4863;9551
1040817;2;19;2;2068;-720;-38;-2729;248;-5263;8879
1040827;2;19;2;2068;-700;165;-2782;-740;-5490;8553
1040837;2;19;2;2068;-663;290;-2696;-1662;-5644;8464
1040847;2;19;2;2068;-396;314;-2659;-2240;-5758;8344
1040857;2;19;2;2068;-116;279;-2592;-2388;-5827;7923
1040867;2;19;2;2068;-19;244;-2598;-2389;-5903;7273
1040877;2;19;2;2068;162;284;-2801;-2554;-6043;6481
1040887;2;19;2;2068;341;593;-3179;-2998;-6237;5874
1040897;2;19;2;2068;380;875;-3421;-3737;-6617;5672
1040907;2;19;2;2068;200;1102;-3519;-4519;-6917;5868
1040917;2;19;2;2068;-39;1388;-3635;-5102;-6911;6227
1040927;2;19;2;2069;-232;1695;-3726;-5163;-6708;6392
1040937;2;19;2;2069;-318;1936;-3748;-4572;-6231;6218
1040947;2;19;2;2069;-328;2152;-3820;-3348;-5534;5539
1040957;2;19;2;2069;-304;2512;-3935;-1830;-4842;4713
1040967;2;19;2;2069;-176;2842;-4129;-376;-4282;4234
1040977;2;19;2;2069;-3;2931;-4265;1014;-3695;3955
1040987;2;19;2;2069;100;2775;-4334;2406;-3136;3498
1040997;2;19;2;2069;-14;2701;-4357;3785;-2636;2720
1041007;2;19;2;2069;-115;2640;-4469;4851;-2225;2069
1041017;2;19;2;2069;-280;2505;-4612;5597;-1771;1601
1041027;2;19;2;2069;-459;2448;-4787;6054;-1428;1435
1041037;2;19;2;2069;-490;2354;-4916;6294;-1224;1527
1041047;2;19;2;2069;-448;2227;-5063;6208;-1152;1636
1041057;2;19;2;2069;-371;2109;-5126;5824;-1225;1413
1041067;2;19;2;2069;-329;2153;-5099;5197;-1501;928
1041077;2;19;2;2069;-425;2343;-5179;4576;-1990;632
1041087;2;19;2;2069;-796;2294;-5085;4179;-2316;564
1041097;2;19;2;2069;-1258;2197;-5038;3948;-2660;598
1041107;2;19;2;2069;-1686;2196;-5271;3677;-3005;766
1041117;2;19;2;2069;-2074;2301;-5617;3036;-3103;1075
1041127;2;19;2;2069;-2354;2476;-5914;2066;-3143;1506
1041137;2;19;2;2069;-2402;2599;-5982;1136;-3154;1760
1041147;2;19;2;2069;-2478;2638;-5792;535;-3084;1865
1041157;2;19;2;2069;-2377;2600;-5513;273;-3051;2045
1041167;2;19;2;2069;-2139;2378;-5318;234;-3168;2152
1041177;2;19;2;2069;-1952;2094;-5187;83;-3418;2023
1041187;2;19;2;2069;-1865;1937;-5107;-460;-3812;1848
1041197;2;19;2;2069;-1995;2051;-5102;-1496;-4257;1862
1041207;2;19;2;2069;-2240;2169;-4944;-2643;-4603;2177
1041217;2;19;2;2069;-2366;2218;-4684;-3386;-4829;2516
1041227;2;19;2;2069;-2422;2212;-4333;-3558;-4978;2696
1041237;2;19;2;2069;-2528;2231;-4169;-3458;-4951;2939
1041247;2;19;2;2069;-2573;2301;-4009;-3278;-4778;3121
1041257;2;19;2;2069;-2674;2548;-3844;-3131;-4447;3560
1041267;2;19;2;2069;-2488;2706;-3623;-2775;-4084;4385
1041277;2;19;2;2069;-2058;2704;-3379;-2188;-3810;4977
1041287;2;19;2;2069;-1628;2713;-3130;-1475;-3691;5137
1041297;2;19;2;2069;-1304;2732;-2991;-703;-3765;4953
1041307;2;19;2;2069;-1134;2857;-3007;78;-3921;4731
1041317;2;19;2;2069;-1072;2900;-3049;847;-4094;4732
1041327;2;19;2;2069;-1104;2768;-3044;1589;-4192;4821
1041337;2;19;2;2069;-1172;2601;-3085;2167;-4263;4955
1041347;2;19;2;2069;-1083;2415;-3146;2502;-4315;5080
1041357;2;19;2;2069;-950;2231;-3168;2527;-4268;5053
1041367;2;19;2;2069;-805;2044;-3090;2561;-4207;4810
1041377;2;19;2;2069;-718;1992;-3010;2685;-4142;4505
1041387;2;19;2;2069;-678;1914;-2936;2934;-3989;4219
1041397;2;19;2;2069;-679;1823;-2912;3241;-3839;4021
1041407;2;19;2;2069;-686;1761;-2967;3470;-3695;3966
1041417;2;19;2;2069;-706;1666;-3075;3453;-3417;4048
1041427;2;19;2;2070;-724;1625;-3178;3195;-3036;4225
1041437;2;19;2;2070;-658;1558;-3206;2855;-2739;4517
1041447;2;19;2;2070;-545;1412;-3081;2421;-2463;4783
1041457;2;19;2;2070;-390;1338;-3036;1968;-2222;4935
1041467;2;19;2;2070;-159;1260;-2976;1615;-2077;4886
1041477;2;19;2;2070;-17;1277;-2934;1330;-2051;4706
1041487;2;19;2;2070;59;1426;-2972;979;-2071;4619
1041497;2;19;2;2070;82;1494;-2946;660;-2079;4654
1041507;2;19;2;2070;97;1562;-2916;447;-2104;4660
1041517;2;19;2;2070;153;1577;-2948;412;-2114;4570
1041527;2;19;2;2070;148;1586;-2932;475;-2048;4360
1041537;2;19;2;2070;150;1517;-2870;569;-1965;4055
1041547;2;19;2;2070;182;1474;-2824;692;-1866;3704
1041557;2;19;2;2070;153;1417;-2768;743;-1738;3363
1041567;2;19;2;2070;111;1398;-2698;735;-1681;3125
1041577;2;19;2;2070;38;1428;-2658;651;-1723;3180
1041587;2;19;2;2070;96;1466;-2634;467;-1866;3502
1041597;2;19;2;2070;144;1572;-2592;188;-2080;3918
1041607;2;19;2;2070;221;1748;-2608;-118;-2383;4447
1041617;2;19;2;2070;319;1827;-2540;-299;-2652;4937
1041627;2;19;2;2070;445;1783;-2404;-167;-2909;5154
1041637;2;19;2;2070;473;1691;-2300;245;-3111;4937
1041647;2;19;2;2070;391;1562;-2362;776;-3287;4415
1041657;2;19;2;2070;318;1426;-2410;1204;-3402;3733
1041667;2;19;2;2070;265;1349;-2473;1373;-3482;3004
1041677;2;19;2;2070;240;1332;-2515;1313;-3548;2365
1041687;2;19;2;2070;151;1381;-2566;1139;-3628;1883
1041697;2;19;2;2070;-112;1499;-2591;835;-3600;1609
1041707;2;19;2;2070;-487;1691;-2817;346;-3567;1652
1041717;2;19;2;2070;-687;1804;-3025;-18;-3338;2126
1041727;2;19;2;2070;-703;1770;-2912;-8;-2979;2698
1041737;2;19;2;2070;-560;1766;-2840;321;-2577;3013
1041747;2;19;2;2070;-381;1808;-2850;743;-2219;2955
1041757;2;19;2;2070;-296;1927;-2870;975;-1830;2606
1041767;2;19;2;2070;-437;2197;-2977;935;-1485;2320
1041777;2;19;2;2070;-421;2302;-3035;851;-1165;2239
1041787;2;19;2;2070;-323;2285;-3008;989;-915;2125
1041797;2;19;2;2070;-227;2215;-2881;1316;-698;1857
1041807;2;19;2;2070;-71;2147;-2840;1711;-575;1392
1041817;2;19;2;2070;-38;2115;-2860;1896;-515;840
1041827;2;19;2;2070;-148;2080;-2893;1768;-453;336
1041837;2;19;2;2070;-359;2166;-2979;1430;-387;158
1041847;2;19;2;2070;-431;2186;-2949;1115;-284;543
1041857;2;19;2;2070;-411;2106;-2909;858;-169;1021
1041867;2;19;2;2070;-314;2025;-2869;579;-92;1268
1041877;2;19;2;2070;-240;2087;-2817;176;-100;1250
1041887;2;19;2;2070;-331;2288;-2886;-399;-2;1215
1041897;2;19;2;2070;-449;2426;-2919;-939;261;1207
1041907;2;19;2;2070;-492;2585;-2782;-1187;445;1301
1041917;2;19;2;2070;-359;2673;-2619;-1175;599;1474
1041927;2;19;2;2071;-99;2749;-2482;-930;528;1513
1041937;2;19;2;2071;174;2881;-2469;-703;161;1393
1041947;2;19;2;2071;235;3103;-2525;-631;-382;1319
1041957;2;19;2;2071;110;3385;-2659;-691;-1110;1491
1041967;2;19;2;2071;-358;3758;-2948;-744;-1844;2046
1041977;2;19;2;2071;-804;3681;-3125;-431;-2327;2808
1041987;2;19;2;2071;-1183;3450;-3137;262;-2560;3207
1041997;2;19;2;2071;-1468;3192;-3199;1121;-2673;3023
1042007;2;19;2;2071;-1649;2915;-3236;1894;-2668;2307
1042017;2;19;2;2071;-1834;2715;-3252;2423;-2554;1272
1042027;2;19;2;2071;-2104;2476;-3281;2733;-2444;159
1042037;2;19;2;2071;-2335;2274;-3432;2817;-2375;-954
1042047;2;19;2;2071;-2614;2240;-3640;2764;-2022;-1749
1042057;2;19;2;2071;-2870;2098;-3672;2770;-1506;-1801
1042067;2;19;2;2071;-2881;1939;-3631;2883;-1129;-1475
1042077;2;19;2;2071;-2998;1842;-3656;2998;-717;-791
1042087;2;19;2;2071;-3076;1589;-3542;2994;-330;551
1042097;2;19;2;2071;-2893;1306;-3463;2739;-108;2149
1042107;2;19;2;2071;-2458;1212;-3491;2147;120;3617
1042117;2;19;2;2071;-1944;1132;-3505;1282;404;4516
1042127;2;19;2;2071;-1473;1135;-3352;433;463;4580
1042137;2;19;2;2071;-1101;1124;-3200;-208;305;3888
1042147;2;19;2;2071;-888;1236;-3121;-527;68;2907
1042157;2;19;2;2071;-792;1360;-3099;-622;-183;2005
1042167;2;19;2;2071;-714;1372;-3067;-570;-433;1160
1042177;2;19;2;2071;-868;1359;-3067;-517;-543;406
1042187;2;19;2;2071;-1055;1387;-3078;-623;-567;-209
1042197;2;19;2;2071;-1108;1379;-3089;-809;-547;-670
1042207;2;19;2;2071;-1099;1406;-2990;-1029;-487;-1199
1042217;2;19;2;2071;-1010;1481;-2863;-1185;-515;-1692
1042227;2;19;2;2071;-1035;1617;-2801;-1277;-619;-2066
1042237;2;19;2;2071;-1030;1770;-2736;-1370;-808;-2182
1042247;2;19;2;2071;-986;1823;-2668;-1416;-1050;-2041
1042257;2;19;2;2071;-916;1857;-2565;-1510;-1400;-1824
1042267;2;19;2;2071;-981;1991;-2608;-1772;-1815;-1559
1042277;2;19;2;2071;-1253;2139;-2701;-2151;-2110;-1152
1042287;2;19;2;2071;-1489;2155;-2737;-2531;-2302;-600
1042297;2;19;2;2071;-1496;2162;-2736;-2773;-2405;-177
1042307;2;19;2;2071;-1377;2171;-2680;-2867;-2452;18
1042317;2;19;2;2071;-1272;2218;-2672;-2905;-2534;-31
1042327;2;19;2;2071;-1419;2485;-2732;-3050;-2532;-64
1042337;2;19;2;2071;-1652;2700;-2791;-3295;-2452;257
1042347;2;19;2;2071;-1678;2796;-2762;-3306;-2354;742
1042357;2;19;2;2071;-1599;2793;-2664;-2969;-2103;1129
1042367;2;19;2;2071;-1481;2776;-2562;-2407;-1792;1235
1042377;2;19;2;2071;-1393;2756;-2554;-1739;-1492;1070
1042387;2;19;2;2071;-1337;2721;-2534;-1124;-1156;753
1042397;2;19;2;2071;-1333;2681;-2505;-526;-786;387
1042407;2;19;2;2071;-1269;2580;-2440;70;-435;117
1042417;2;19;2;2071;-1186;2418;-2337;619;-131;-112
