timestamp;subject_id;activity;label;seq;ax;ay;az;gx;gy;gz
965927;2;19;2;1919;4719;951;-927;-1608;-11277;-2693
965937;2;19;2;1919;4931;1240;-712;-2242;-12173;-2962
965947;2;19;2;1919;5155;1392;-631;-2890;-13879;-2948
965957;2;19;2;1919;5251;1195;-674;-2824;-15593;-3110
965967;2;19;2;1919;5054;1414;-1035;-2514;-17096;-3387
965977;2;19;2;1919;4884;1377;-1423;-2565;-18108;-3613
965987;2;19;2;1919;4581;1346;-1861;-2903;-18488;-3906
965997;2;19;2;1919;4291;1474;-2332;-3423;-18159;-4395
966007;2;19;2;1919;4131;1460;-2617;-4037;-17277;-4771
966017;2;19;2;1919;4253;1686;-2709;-4032;-16251;-5890
966027;2;19;2;1919;3932;1933;-2638;-3785;-15664;-6385
966037;2;19;2;1919;3608;1683;-3075;-4157;-15023;-6476
966047;2;19;2;1919;3066;1787;-3266;-5300;-13693;-6788
966057;2;19;2;1919;2739;2073;-2989;-6745;-11960;-7074
966067;2;19;2;1919;2450;2260;-2044;-7923;-10694;-7056
966077;2;19;2;1919;2034;2153;-1145;-8762;-10333;-7101
966087;2;19;2;1919;1450;2432;-692;-8989;-10538;-6961
966097;2;19;2;1919;951;2803;-536;-8790;-10633;-6201
966107;2;19;2;1919;768;2696;-654;-8106;-10087;-5669
966117;2;19;2;1919;927;2556;-864;-6822;-8288;-5889
966127;2;19;2;1919;907;2601;-729;-5494;-6089;-5940
966137;2;19;2;1919;1032;2803;-317;-4861;-4552;-6414
966147;2;19;2;1919;1031;3314;-123;-4769;-3502;-6617
966157;2;19;2;1919;898;3660;144;-4666;-2245;-6124
966167;2;19;2;1919;694;3569;508;-3835;-945;-5685
966177;2;19;2;1919;541;3489;873;-2291;-13;-5254
966187;2;19;2;1919;648;3440;849;-1170;697;-4694
966197;2;19;2;1919;697;3808;762;-1192;1392;-4354
966207;2;19;2;1919;839;3774;951;-1846;1767;-3848
966217;2;19;2;1919;949;3859;957;-2071;2247;-3699
966227;2;19;2;1919;1131;3987;1015;-2126;2928;-3531
966237;2;19;2;1919;1079;4117;1100;-2293;3753;-3796
966247;2;19;2;1919;1170;4216;1277;-2010;4146;-4120
966257;2;19;2;1919;1294;4396;1248;-818;4106;-4128
966267;2;19;2;1919;1556;4490;953;504;4033;-3788
966277;2;19;2;1919;1812;4399;867;978;3811;-3515
966287;2;19;2;1919;1966;4361;848;534;2990;-3591
966297;2;19;2;1919;1864;4584;808;-311;1814;-3522
966307;2;19;2;1919;1798;4640;783;-982;558;-3071
966317;2;19;2;1919;1720;4401;639;-984;-444;-2893
966327;2;19;2;1919;1454;4227;367;-243;-1087;-2892
966337;2;19;2;1919;1231;3850;-54;967;-1557;-2810
966347;2;19;2;1919;875;3648;-885;1987;-1590;-2651
966357;2;19;2;1919;615;3302;-1532;2306;-1033;-2118
966367;2;19;2;1919;462;2853;-1902;1719;80;-1601
966377;2;19;2;1919;49;2669;-2105;-448;1392;-1125
966387;2;19;2;1919;-164;2373;-1909;-3947;2934;-907
966397;2;19;2;1919;-147;2454;-1387;-7571;4380;-1373
966407;2;19;2;1919;157;2828;-722;-9941;5648;-1693
966417;2;19;2;1919;908;3156;16;-10142;6973;-1570
966427;2;19;2;1920;1584;3637;444;-8798;7554;-1745
966437;2;19;2;1920;2218;4093;704;-7626;7323;-2128
966447;2;19;2;1920;2635;4463;831;-6779;6807;-2421
966457;2;19;2;1920;2781;4585;1016;-6050;6121;-2629
966467;2;19;2;1920;2808;4758;1115;-5397;4837;-2748
966477;2;19;2;1920;2686;4853;986;-5174;3298;-2539
966487;2;19;2;1920;2539;4735;680;-5118;2063;-2519
966497;2;19;2;1920;2410;4518;392;-4716;1588;-2735
966507;2;19;2;1920;2101;4402;313;-4032;1542;-2817
966517;2;19;2;1920;1754;4265;122;-3270;1490;-2719
966527;2;19;2;1920;1527;4124;-28;-2719;1505;-2447
966537;2;19;2;1920;1456;3637;-296;-2380;1669;-2338
966547;2;19;2;1920;1325;3773;-517;-2716;1689;-2413
966557;2;19;2;1920;1277;3839;-557;-2952;1001;-1665
966567;2;19;2;1920;1209;3682;-705;-3556;595;-1107
966577;2;19;2;1920;1196;4001;-194;-3393;-533;-99
966587;2;19;2;1920;1394;3975;-207;-936;-4652;2987
966597;2;19;2;1920;2126;3168;-1864;-1138;-5696;3827
966607;2;19;2;1920;1697;3594;-1414;-4327;-4385;2408
966617;2;19;2;1920;1082;3415;-10;-6100;-2979;1735
966627;2;19;2;1920;986;3227;2242;-7653;196;370
966637;2;19;2;1920;505;4291;4605;-1699;2691;-858
966647;2;19;2;1920;566;4304;1965;641;1947;-194
966657;2;19;2;1920;1181;3382;497;476;1361;-155
966667;2;19;2;1920;1444;3029;-570;388;2867;-1481
966677;2;19;2;1920;1353;3479;-389;259;5132;-2416
966687;2;19;2;1920;1190;4009;495;771;6136;-2578
966697;2;19;2;1920;1471;4438;811;1757;5161;-1935
966707;2;19;2;1920;1721;4569;580;2552;3772;-597
966717;2;19;2;1920;1849;4195;44;2835;2893;20
966727;2;19;2;1920;1680;3759;-373;2589;3210;-178
966737;2;19;2;1920;1849;4161;-115;2269;4240;-984
966747;2;19;2;1920;1807;4292;319;1604;4673;-1269
966757;2;19;2;1920;1257;4392;786;1180;4340;-812
966767;2;19;2;1920;1124;4155;704;883;3832;-172
966777;2;19;2;1920;1087;3949;316;739;4202;-156
966787;2;19;2;1920;1014;3944;212;757;4962;-204
966797;2;19;2;1920;1181;3885;464;713;5686;-564
966807;2;19;2;1920;1154;4116;922;631;5587;-850
966817;2;19;2;1920;990;4218;984;504;4940;-597
966827;2;19;2;1920;955;4138;769;411;4361;-269
966837;2;19;2;1920;964;3986;672;304;4336;-218
966847;2;19;2;1920;939;3968;556;287;4869;-415
966857;2;19;2;1920;1049;4014;627;-9;5575;-1221
966867;2;19;2;1920;780;4243;1013;-217;5840;-1709
966877;2;19;2;1920;801;4190;1080;-110;5772;-1649
966887;2;19;2;1920;946;4294;847;-76;5787;-1902
966897;2;19;2;1920;873;4461;975;3;5286;-1568
966907;2;19;2;1920;429;4632;434;-613;4031;306
966917;2;19;2;1920;565;3045;822;-2209;2670;1235
966927;2;19;2;1921;889;3083;1304;-1473;2615;106
966937;2;19;2;1921;1107;3939;1295;720;3124;-893
966947;2;19;2;1921;1651;4298;1266;2855;1613;-1851
966957;2;19;2;1921;785;4192;739;2722;-39;-2845
966967;2;19;2;1921;599;4128;1466;610;-1705;-2728
966977;2;19;2;1921;820;4032;1481;-592;-3095;-3041
966987;2;19;2;1921;975;3998;1166;-612;-3341;-3873
966997;2;19;2;1921;844;4004;1123;-247;-2906;-4267
967007;2;19;2;1921;731;4164;733;422;-2513;-3475
967017;2;19;2;1921;515;3763;425;799;-1140;-2187
967027;2;19;2;1921;513;3929;1037;1288;-560;-1974
967037;2;19;2;1921;882;4032;1818;1494;-2242;-1492
967047;2;19;2;1921;1111;3811;1603;1308;-4870;-1174
967057;2;19;2;1921;877;3981;124;1654;-6363;-1349
967067;2;19;2;1921;694;4344;-1015;3105;-3610;-1816
967077;2;19;2;1921;711;4611;-766;2465;-1278;-1997
967087;2;19;2;1921;867;4429;-405;-133;-1047;-1608
967097;2;19;2;1921;799;4126;-316;-3078;-1301;-1286
967107;2;19;2;1921;733;4240;368;-5032;-1514;-912
967117;2;19;2;1921;890;3935;864;-5365;-1958;-546
967127;2;19;2;1921;914;3717;1285;-4523;-2167;-654
967137;2;19;2;1921;872;3635;1395;-2738;-2321;-622
967147;2;19;2;1921;982;3443;1051;-1183;-2606;-585
967157;2;19;2;1921;1104;3583;721;-480;-2940;-535
967167;2;19;2;1921;1132;3698;566;-693;-3253;-224
967177;2;19;2;1921;1046;3733;592;-1329;-3447;73
967187;2;19;2;1921;1087;3667;674;-1694;-3198;237
967197;2;19;2;1921;1237;3649;757;-1414;-2920;267
967207;2;19;2;1921;1465;3782;452;-1290;-2621;-18
967217;2;19;2;1921;1640;3978;382;-1799;-1936;-646
967227;2;19;2;1921;1685;4142;713;-2308;-1551;-1229
967237;2;19;2;1921;1446;4116;983;-2287;-1630;-1634
967247;2;19;2;1921;1191;4092;966;-2135;-2008;-1875
967257;2;19;2;1921;764;4118;817;-1967;-2173;-1983
967267;2;19;2;1921;436;4002;854;-1594;-2228;-1524
967277;2;19;2;1921;275;3967;831;-1240;-2351;-827
967287;2;19;2;1921;288;4111;792;-1037;-2177;-430
967297;2;19;2;1921;258;4388;831;-523;-1879;-325
967307;2;19;2;1921;153;4531;925;45;-1743;-110
967317;2;19;2;1921;154;4559;280;902;-1655;-9
967327;2;19;2;1921;191;4329;219;1546;-1635;-83
967337;2;19;2;1921;358;4268;-19;1958;-1882;77
967347;2;19;2;1921;437;4385;-234;1250;-2172;50
967357;2;19;2;1921;499;4071;236;-56;-2036;-540
967367;2;19;2;1921;319;4261;1010;-383;-1914;-2523
967377;2;19;2;1921;590;5585;54;680;-2408;-840
967387;2;19;2;1921;1195;4159;67;-28;-2290;-288
967397;2;19;2;1921;877;3796;-381;-735;-2880;-535
967407;2;19;2;1921;731;3649;-397;-1944;-3123;-459
967417;2;19;2;1921;716;3750;-165;-3547;-3153;-422
967427;2;19;2;1922;614;3822;323;-5077;-2927;-477
967437;2;19;2;1922;484;3850;921;-5767;-2741;-320
967447;2;19;2;1922;438;3768;1325;-5291;-2574;-180
967457;2;19;2;1922;430;3793;1600;-3901;-2276;-69
967467;2;19;2;1922;475;3828;1702;-2339;-2319;156
967477;2;19;2;1922;618;3863;1453;-1094;-2417;144
967487;2;19;2;1922;722;3843;1123;-245;-2311;-124
967497;2;19;2;1922;828;3764;815;191;-1911;-670
967507;2;19;2;1922;892;3899;755;-45;-1460;-1182
967517;2;19;2;1922;1092;3813;580;-760;-998;-1566
967527;2;19;2;1922;923;3889;1280;-1233;-925;-2024
967537;2;19;2;1922;121;4274;1249;-1572;-1661;-1528
967547;2;19;2;1922;150;3951;1248;-1336;-1460;-903
967557;2;19;2;1922;135;3929;1602;-490;-1247;-778
967567;2;19;2;1922;-94;4249;1581;258;-1608;-284
967577;2;19;2;1922;85;4128;1072;495;-1835;400
967587;2;19;2;1922;411;3995;791;157;-1530;452
967597;2;19;2;1922;596;4049;792;-566;-1348;396
967607;2;19;2;1922;725;3889;588;-1124;-898;95
967617;2;19;2;1922;697;3855;743;-1224;-45;-524
967627;2;19;2;1922;577;3934;1070;-1370;227;-901
967637;2;19;2;1922;332;4013;1204;-1498;83;-1045
967647;2;19;2;1922;191;3897;1371;-1184;83;-969
967657;2;19;2;1922;188;3807;1404;-317;263;-1077
967667;2;19;2;1922;295;3845;1407;452;367;-1271
967677;2;19;2;1922;201;3941;1317;694;370;-1294
967687;2;19;2;1922;209;3983;1399;674;356;-1212
967697;2;19;2;1922;220;4134;1311;401;95;-1085
967707;2;19;2;1922;196;4068;1274;92;-238;-820
967717;2;19;2;1922;242;3996;1201;118;-331;-860
967727;2;19;2;1922;514;3865;783;1013;146;-1006
967737;2;19;2;1922;767;3950;435;1567;947;-1098
967747;2;19;2;1922;847;3901;502;710;1309;-1591
967757;2;19;2;1922;578;3944;660;-609;1342;-2494
967767;2;19;2;1922;263;4096;1126;-1615;1419;-2999
967777;2;19;2;1922;43;4158;1456;-2047;1193;-2944
967787;2;19;2;1922;59;4052;1590;-2269;888;-2969
967797;2;19;2;1922;-165;4124;1644;-2199;899;-3065
967807;2;19;2;1922;5;3964;1563;-1282;632;-3170
967817;2;19;2;1922;-93;3899;1472;-880;324;-3258
967827;2;19;2;1922;-183;3901;1267;-818;-186;-3171
967837;2;19;2;1922;-434;3826;1298;-947;-516;-2836
967847;2;19;2;1922;-814;3791;1607;-629;-1358;-1671
967857;2;19;2;1922;-1867;3286;2943;812;-4158;-687
967867;2;19;2;1922;-2445;4495;1304;3172;-5074;1104
967877;2;19;2;1922;827;3959;266;2106;-2221;2599
967887;2;19;2;1922;1865;4175;92;574;-1880;1312
967897;2;19;2;1922;1261;4102;491;-1149;-1379;99
967907;2;19;2;1922;750;4024;1235;-1247;-726;-1055
967917;2;19;2;1922;215;4086;1406;-435;-953;-1169
967927;2;19;2;1923;18;3881;1124;-369;-1024;-1090
967937;2;19;2;1923;-211;3691;1106;-498;-837;-1159
967947;2;19;2;1923;-364;3117;762;1024;953;-2209
967957;2;19;2;1923;-407;4313;1329;1217;1252;-1878
967967;2;19;2;1923;-230;3882;1231;558;1079;-1144
967977;2;19;2;1923;-325;3952;1407;760;1442;-1461
967987;2;19;2;1923;-230;4100;1462;775;1295;-1103
967997;2;19;2;1923;-52;4074;1280;688;877;-632
968007;2;19;2;1923;146;3953;1114;930;669;-444
968017;2;19;2;1923;228;4069;942;1051;489;-433
968027;2;19;2;1923;208;3978;796;810;233;-299
968037;2;19;2;1923;59;3864;699;528;212;-445
968047;2;19;2;1923;-57;3902;674;223;374;-710
968057;2;19;2;1923;-137;4026;892;-100;476;-708
968067;2;19;2;1923;-64;4110;1121;-164;368;-579
968077;2;19;2;1923;96;4059;1192;2;372;-636
968087;2;19;2;1923;-201;4119;1219;201;249;-349
968097;2;19;2;1923;-469;3952;1278;301;125;208
968107;2;19;2;1923;-427;3740;1192;307;-22;539
968117;2;19;2;1923;-381;3716;1095;331;-176;601
968127;2;19;2;1923;-303;3823;928;403;-40;503
968137;2;19;2;1923;-299;4646;728;-1755;-487;794
968147;2;19;2;1923;-363;4667;790;-5582;-1637;1479
968157;2;19;2;1923;62;3836;1893;-2232;-1181;1035
968167;2;19;2;1923;-76;3272;767;1137;-365;21
968177;2;19;2;1923;-413;3780;631;-225;-70;-106
968187;2;19;2;1923;-372;4162;1120;-1398;67;304
968197;2;19;2;1923;-168;4200;1416;-1544;5;582
968207;2;19;2;1923;127;4067;1373;-1353;-123;821
968217;2;19;2;1923;323;3576;1302;-1008;-213;753
968227;2;19;2;1923;265;3215;1272;-401;-252;-69
968237;2;19;2;1923;90;3318;1133;-87;-278;-926
968247;2;19;2;1923;-101;3808;1140;-182;-264;-797
968257;2;19;2;1923;-204;4308;1397;500;-299;-148
968267;2;19;2;1923;-254;4269;947;566;-252;91
968277;2;19;2;1923;-231;4311;1033;171;23;-60
968287;2;19;2;1923;-213;4860;1081;331;123;183
968297;2;19;2;1923;-124;4546;781;118;344;430
968307;2;19;2;1923;-92;4336;757;-604;635;321
968317;2;19;2;1923;-57;4373;836;-1068;855;511
968327;2;19;2;1923;133;4065;909;-1460;863;904
968337;2;19;2;1923;418;3596;1155;-1755;671;1215
968347;2;19;2;1923;679;3367;1504;-1210;256;1316
968357;2;19;2;1923;43;3229;1536;1402;54;-794
968367;2;19;2;1923;-556;3808;1086;1517;179;-1525
968377;2;19;2;1923;-655;4301;1173;939;488;-849
968387;2;19;2;1923;-477;4266;1086;1192;886;-1086
968397;2;19;2;1923;-393;4385;924;1102;1247;-1927
968407;2;19;2;1923;-345;4224;871;434;1449;-1994
968417;2;19;2;1923;1;4124;747;-363;1665;-1761
968427;2;19;2;1924;-18;4287;649;-1216;1961;-1267
968437;2;19;2;1924;14;4201;736;-1540;2156;-846
968447;2;19;2;1924;106;3797;929;-1483;2276;-672
968457;2;19;2;1924;53;3443;1168;-844;2192;-643
968467;2;19;2;1924;109;3342;1022;-405;2252;-481
968477;2;19;2;1924;26;3621;1459;156;2100;-345
968487;2;19;2;1924;-14;3799;1367;949;1745;-883
968497;2;19;2;1924;-242;4220;1230;434;1670;-1036
968507;2;19;2;1924;-212;4107;1391;74;1623;-666
968517;2;19;2;1924;-228;3904;1220;138;1795;-1317
968527;2;19;2;1924;-649;4164;1133;-250;2017;-1338
968537;2;19;2;1924;-741;4316;1071;-635;2148;-387
968547;2;19;2;1924;-658;4261;1146;-698;2271;949
968557;2;19;2;1924;-396;3785;1082;-453;2284;1538
968567;2;19;2;1924;-1275;4247;1135;1151;3247;726
968577;2;19;2;1924;191;3249;1638;642;2214;884
968587;2;19;2;1924;362;3665;1486;254;1967;1279
968597;2;19;2;1924;-177;3912;1447;544;1963;1434
968607;2;19;2;1924;-338;3773;1419;883;1612;1536
968617;2;19;2;1924;-417;3959;1201;1075;1386;1300
968627;2;19;2;1924;-550;4193;1053;949;1359;1329
968637;2;19;2;1924;-552;4242;1016;707;1470;1414
968647;2;19;2;1924;-553;4227;1013;526;1658;1339
968657;2;19;2;1924;-440;4246;1045;363;1689;1380
968667;2;19;2;1924;-207;4123;1093;289;1639;1418
968677;2;19;2;1924;26;3904;1183;197;1439;1480
968687;2;19;2;1924;174;3857;1236;294;1264;1648
968697;2;19;2;1924;248;3744;1276;482;1276;1624
968707;2;19;2;1924;187;3749;1276;605;1400;1533
968717;2;19;2;1924;95;4035;1221;485;1455;1511
968727;2;19;2;1924;84;4417;1131;40;1434;1556
968737;2;19;2;1924;323;4545;1199;-143;1375;1510
968747;2;19;2;1924;663;4449;637;5;1402;1336
968757;2;19;2;1924;455;4233;11;556;1952;1393
968767;2;19;2;1924;463;4055;-194;826;2336;1523
968777;2;19;2;1924;696;4325;-131;841;2699;1572
968787;2;19;2;1924;803;4378;155;375;2979;2016
968797;2;19;2;1924;770;4128;732;412;3295;1979
968807;2;19;2;1924;590;4164;1018;874;3637;1877
968817;2;19;2;1924;331;4115;1033;829;3982;2004
968827;2;19;2;1924;140;3910;1099;807;4457;1937
968837;2;19;2;1924;37;3731;1032;760;4871;1675
968847;2;19;2;1924;71;3695;924;767;5232;1383
968857;2;19;2;1924;105;3701;780;888;5484;1273
968867;2;19;2;1924;296;3687;562;941;5738;1150
968877;2;19;2;1924;474;3676;472;1042;6048;908
968887;2;19;2;1924;523;3762;430;1180;6145;805
968897;2;19;2;1924;610;3854;278;1241;6295;839
968907;2;19;2;1924;734;3989;209;1080;6519;905
968917;2;19;2;1924;711;4187;301;917;6753;995
968927;2;19;2;1925;629;4307;460;758;6837;1184
968937;2;19;2;1925;597;4351;571;653;6853;1408
968947;2;19;2;1925;541;4275;690;629;6966;1584
968957;2;19;2;1925;521;4102;738;716;7141;1692
968967;2;19;2;1925;511;3909;669;806;7383;1728
968977;2;19;2;1925;542;3783;595;810;7628;1599
968987;2;19;2;1925;558;3665;470;906;7897;1507
968997;2;19;2;1925;657;3565;401;1207;8142;1294
969007;2;19;2;1925;810;3536;257;1508;8390;991
969017;2;19;2;1925;955;3666;150;1702;8702;665
969027;2;19;2;1925;915;3856;109;1773;8981;573
969037;2;19;2;1925;826;4061;178;1736;9215;599
969047;2;19;2;1925;678;4210;314;1637;9529;601
969057;2;19;2;1925;546;4349;517;1499;9812;684
969067;2;19;2;1925;387;4358;784;1279;9890;956
969077;2;19;2;1925;319;4273;970;1090;9815;1200
969087;2;19;2;1925;384;4107;1027;1009;9644;1411
969097;2;19;2;1925;389;3952;952;1052;9652;1340
969107;2;19;2;1925;366;3883;828;1146;9803;1146
969117;2;19;2;1925;366;3873;710;1298;9926;971
969127;2;19;2;1925;428;3861;558;1511;10091;769
969137;2;19;2;1925;340;4090;441;1501;10350;593
969147;2;19;2;1925;338;4217;455;1149;10470;671
969157;2;19;2;1925;279;4294;624;694;10473;863
969167;2;19;2;1925;359;4311;743;278;10406;1001
969177;2;19;2;1925;369;4289;912;57;10269;1065
969187;2;19;2;1925;348;4164;1011;93;10083;1069
969197;2;19;2;1925;348;4127;1066;103;9834;1035
969207;2;19;2;1925;324;4116;1092;81;9565;986
969217;2;19;2;1925;335;4091;1106;217;9318;942
969227;2;19;2;1925;324;4018;1083;659;9064;820
969237;2;19;2;1925;227;3976;974;1383;8823;637
969247;2;19;2;1925;90;4105;929;2276;8590;490
969257;2;19;2;1925;110;4357;963;3498;8286;379
969267;2;19;2;1925;219;4659;1125;5540;8123;129
969277;2;19;2;1925;392;4721;1133;8143;7895;-89
969287;2;19;2;1925;598;4739;659;10465;7517;-287
969297;2;19;2;1925;942;4301;80;12358;6984;-498
969307;2;19;2;1925;1001;4218;-615;13562;6642;-934
969317;2;19;2;1925;1050;3914;-1291;13619;6246;-1250
969327;2;19;2;1925;1046;3865;-1857;12063;5891;-1739
969337;2;19;2;1925;848;4108;-1910;9226;5618;-2232
969347;2;19;2;1925;527;4310;-1724;6294;5300;-2531
969357;2;19;2;1925;108;4408;-1469;4032;5159;-2699
969367;2;19;2;1925;-356;4390;-1395;2604;5068;-2508
969377;2;19;2;1925;-726;4158;-1612;1487;4959;-1923
969387;2;19;2;1925;-763;3733;-2009;-61;4993;-1353
969397;2;19;2;1925;-608;3436;-2284;-2268;5194;-1104
969407;2;19;2;1925;-442;3205;-2279;-4651;5276;-986
969417;2;19;2;1925;-252;3119;-2272;-7339;5352;-1019
969427;2;19;2;1926;-180;3286;-1944;-9984;5606;-1260
969437;2;19;2;1926;-266;3607;-1436;-11837;5680;-1390
969447;2;19;2;1926;-405;3971;-581;-13164;5568;-1219
969457;2;19;2;1926;-580;4243;321;-13336;5438;-889
969467;2;19;2;1926;-640;4456;1085;-12336;5295;-564
969477;2;19;2;1926;-550;4451;1859;-9834;5061;-313
969487;2;19;2;1926;-456;4403;2724;-6158;4907;-388
969497;2;19;2;1926;-366;4151;1914;-1350;4513;-520
969507;2;19;2;1926;-597;3842;850;-300;4045;-682
969517;2;19;2;1926;-791;3802;752;-219;3884;-666
969527;2;19;2;1926;-703;3933;535;330;3881;-687
969537;2;19;2;1926;-525;3932;242;520;3811;-753
969547;2;19;2;1926;-375;3914;194;665;3686;-781
969557;2;19;2;1926;-300;3984;139;843;3526;-755
969567;2;19;2;1926;-257;3996;179;789;3270;-702
969577;2;19;2;1926;-193;3960;381;544;3026;-692
969587;2;19;2;1926;-152;3962;627;259;2612;-650
969597;2;19;2;1926;-201;3916;798;22;2165;-543
969607;2;19;2;1926;-317;3833;877;-50;1789;-520
969617;2;19;2;1926;-430;3907;875;-72;1529;-461
969627;2;19;2;1926;-445;3891;900;-65;1309;-217
969637;2;19;2;1926;-426;3887;878;72;1156;-29
969647;2;19;2;1926;-372;3865;880;220;1043;73
969657;2;19;2;1926;-289;3872;785;373;979;105
969667;2;19;2;1926;-257;3928;658;448;886;146
969677;2;19;2;1926;-212;4007;515;394;749;202
969687;2;19;2;1926;-180;4046;333;275;676;264
969697;2;19;2;1926;-137;4058;260;108;717;235
969707;2;19;2;1926;-160;4083;261;-135;812;257
969717;2;19;2;1926;-174;4165;333;-422;833;286
969727;2;19;2;1926;-206;4141;350;-787;818;369
969737;2;19;2;1926;-257;4156;260;-1097;855;200
969747;2;19;2;1926;-178;4092;405;-1522;784;489
969757;2;19;2;1926;-315;4064;302;-1552;736;579
969767;2;19;2;1926;-479;4108;179;-1441;952;477
969777;2;19;2;1926;-605;4133;148;-1246;1252;277
969787;2;19;2;1926;-646;4089;126;-1005;1534;160
969797;2;19;2;1926;-530;4088;12;-1040;1720;200
969807;2;19;2;1926;-355;4077;25;-1239;1897;176
969817;2;19;2;1926;-89;4154;163;-1188;1864;120
969827;2;19;2;1926;328;4382;263;-412;1813;-119
969837;2;19;2;1926;420;4605;205;769;2163;-748
969847;2;19;2;1926;266;4599;-77;1054;2501;-1338
969857;2;19;2;1926;-117;4549;-402;303;2462;-1397
969867;2;19;2;1926;-507;4565;-659;-194;2203;-1172
969877;2;19;2;1926;-710;4666;-697;-715;1835;-806
969887;2;19;2;1926;-622;4840;-171;-1374;1331;-316
969897;2;19;2;1926;-341;4904;544;-1409;876;32
969907;2;19;2;1926;-156;4654;618;-1127;542;130
969917;2;19;2;1926;-95;4268;360;-1197;448;54
969927;2;19;2;1927;-34;3950;-18;-1330;532;-160
969937;2;19;2;1927;35;3718;-170;-1430;612;-401
969947;2;19;2;1927;148;3627;-173;-1293;633;-728
969957;2;19;2;1927;273;3623;34;-955;559;-1027
969967;2;19;2;1927;154;3775;157;-491;345;-1232
969977;2;19;2;1927;40;3909;232;-122;-121;-1063
969987;2;19;2;1927;-27;3961;260;129;-677;-784
969997;2;19;2;1927;-205;4139;368;259;-1188;-345
970007;2;19;2;1927;-162;4297;464;412;-1743;-18
970017;2;19;2;1927;-143;4373;636;585;-2238;288
970027;2;19;2;1927;-44;4342;674;851;-2681;490
970037;2;19;2;1927;44;4242;609;1180;-3123;636
970047;2;19;2;1927;88;4229;543;1646;-3523;789
970057;2;19;2;1927;166;4168;320;2289;-3997;918
970067;2;19;2;1927;369;4036;55;3005;-4374;868
970077;2;19;2;1927;515;3988;-354;3333;-4472;652
970087;2;19;2;1927;502;3985;-567;3072;-4568;467
970097;2;19;2;1927;507;4116;-680;2258;-4911;616
970107;2;19;2;1927;558;4148;-611;1116;-5412;746
970117;2;19;2;1927;500;4243;-481;120;-5828;890
970127;2;19;2;1927;481;4176;-377;-693;-6187;996
970137;2;19;2;1927;451;4085;-286;-1138;-6438;966
970147;2;19;2;1927;408;4027;-153;-1285;-6556;806
970157;2;19;2;1927;388;4053;-60;-1231;-6697;771
970167;2;19;2;1927;437;3951;21;-1087;-6876;804
970177;2;19;2;1927;516;3907;83;-734;-7049;730
970187;2;19;2;1927;614;3883;-34;-336;-7275;655
970197;2;19;2;1927;628;3877;-297;-59;-7492;601
970207;2;19;2;1927;518;3910;-507;76;-7532;577
970217;2;19;2;1927;545;3927;-619;223;-7419;353
970227;2;19;2;1927;524;4081;-568;258;-7308;76
970237;2;19;2;1927;436;4186;-382;113;-7398;20
970247;2;19;2;1927;409;4187;-199;-77;-7651;-36
970257;2;19;2;1927;419;4124;-6;-96;-7863;-240
970267;2;19;2;1927;376;4109;67;88;-8064;-440
970277;2;19;2;1927;350;4033;37;234;-8390;-520
970287;2;19;2;1927;268;3874;21;507;-8672;-555
970297;2;19;2;1927;127;3846;-149;941;-8866;-627
970307;2;19;2;1927;82;3833;-239;1249;-8922;-689
970317;2;19;2;1927;53;3795;-295;1641;-8889;-741
970327;2;19;2;1927;79;3855;-269;2044;-8982;-823
970337;2;19;2;1927;90;3889;-381;2329;-9140;-854
970347;2;19;2;1927;246;3869;-504;2360;-9338;-849
970357;2;19;2;1927;481;3824;-571;2378;-9468;-1028
970367;2;19;2;1927;532;3840;-744;2512;-9577;-1246
970377;2;19;2;1927;532;3901;-820;2620;-9775;-1266
970387;2;19;2;1927;501;3912;-875;2678;-10060;-1173
970397;2;19;2;1927;468;3891;-915;2743;-10203;-1131
970407;2;19;2;1927;526;3873;-921;2844;-10198;-1228
970417;2;19;2;1927;668;3786;-843;2999;-10092;-1393
970427;2;19;2;1928;675;3820;-858;3252;-9987;-1506
970437;2;19;2;1928;708;3761;-891;3340;-9956;-1326
970447;2;19;2;1928;715;3669;-879;3613;-9929;-1187
970457;2;19;2;1928;649;3565;-809;4120;-9851;-1159
970467;2;19;2;1928;643;3662;-894;4596;-9627;-1184
970477;2;19;2;1928;624;3485;-985;4911;-9462;-1127
970487;2;19;2;1928;583;3576;-1137;5259;-9055;-1480
970497;2;19;2;1928;786;3528;-986;5024;-8853;-846
970507;2;19;2;1928;753;3466;-1028;4831;-9005;-412
970517;2;19;2;1928;757;3470;-1119;4792;-8874;-395
970527;2;19;2;1928;590;3554;-1167;4814;-8337;-627
970537;2;19;2;1928;424;3659;-1141;5171;-7817;-863
970547;2;19;2;1928;369;3972;-1176;5231;-7378;-657
970557;2;19;2;1928;458;3954;-1154;5189;-7241;-44
970567;2;19;2;1928;473;3804;-1221;5416;-7055;271
970577;2;19;2;1928;445;3862;-1358;5776;-6757;413
970587;2;19;2;1928;397;3540;-1656;5973;-6364;631
970597;2;19;2;1928;183;3479;-1650;5916;-6062;697
970607;2;19;2;1928;-15;3663;-1540;5927;-5899;889
970617;2;19;2;1928;-121;3757;-1417;6088;-5635;1090
970627;2;19;2;1928;-141;3661;-1531;6258;-5223;1177
970637;2;19;2;1928;-189;3551;-1863;6188;-4743;1309
970647;2;19;2;1928;-134;3315;-2138;5577;-4188;1429
970657;2;19;2;1928;-246;3190;-2097;4657;-3416;1398
970667;2;19;2;1928;-421;3140;-1762;3880;-2781;1431
970677;2;19;2;1928;-437;2966;-1335;3576;-2196;1374
970687;2;19;2;1928;-353;2876;-980;3740;-1699;1246
970697;2;19;2;1928;-281;2775;-736;3793;-1619;1333
970707;2;19;2;1928;-165;2422;-690;4168;-1824;1617
970717;2;19;2;1928;-50;2232;-673;4122;-2093;1853
970727;2;19;2;1928;4;2108;-430;3993;-2261;1843
970737;2;19;2;1928;-48;1995;-359;4239;-2097;1414
970747;2;19;2;1928;-218;1869;-560;4384;-1586;946
970757;2;19;2;1928;-166;1769;-432;4164;-1338;929
970767;2;19;2;1928;-279;1769;-476;4330;-1399;957
970777;2;19;2;1928;-151;1743;-376;4399;-1466;1248
970787;2;19;2;1928;194;1749;-375;4509;-1496;1450
970797;2;19;2;1928;525;1629;-417;4552;-1371;1633
970807;2;19;2;1928;488;1402;-786;4595;-1076;1380
970817;2;19;2;1928;194;1253;-1271;4150;-546;1202
970827;2;19;2;1928;-192;1288;-1397;3695;-97;851
970837;2;19;2;1928;-279;1586;-1080;3549;147;914
970847;2;19;2;1928;-239;1735;-820;3581;94;1253
970857;2;19;2;1928;-245;1705;-583;3960;-181;1536
970867;2;19;2;1928;-283;1799;-583;4520;-412;1715
970877;2;19;2;1928;-208;1937;-729;4441;-198;1801
970887;2;19;2;1928;-251;1890;-904;3852;139;2157
970897;2;19;2;1928;-78;1609;-1123;3454;285;2379
970907;2;19;2;1928;159;1414;-1597;3598;354;2257
970917;2;19;2;1928;407;1315;-2104;3740;474;1853
970927;2;19;2;1929;540;1599;-2288;3474;631;1057
970937;2;19;2;1929;405;2190;-2015;2974;429;843
970947;2;19;2;1929;30;2529;-1584;2356;-154;1095
970957;2;19;2;1929;-284;2262;-1630;1520;-201;1182
970967;2;19;2;1929;-207;1976;-1348;669;379;675
970977;2;19;2;1929;-49;1926;-1194;857;900;137
970987;2;19;2;1929;202;2021;-1405;1712;1110;-251
970997;2;19;2;1929;515;2949;-1843;2607;197;-428
971007;2;19;2;1929;440;3771;-3158;2564;-1083;442
971017;2;19;2;1929;299;4169;-3712;1682;-1602;787
971027;2;19;2;1929;25;4678;-3777;1966;-1598;542
971037;2;19;2;1929;145;4515;-3897;3010;-1171;-278
971047;2;19;2;1929;423;4283;-3720;2869;-959;-1589
971057;2;19;2;1929;389;3921;-3312;1813;-1852;-2143
971067;2;19;2;1929;708;3543;-3178;1223;-2995;-2818
971077;2;19;2;1929;1437;3453;-3403;2189;-3645;-4014
971087;2;19;2;1929;1336;3434;-3888;3995;-4094;-5503
971097;2;19;2;1929;1059;3439;-4589;6312;-4813;-6247
971107;2;19;2;1929;872;3585;-5197;8364;-5596;-6330
971117;2;19;2;1929;771;3814;-5856;9523;-6490;-6347
971127;2;19;2;1929;1787;4637;-8168;7299;-7777;-6677
971137;2;19;2;1929;2877;5758;-12199;-2724;-8916;-7838
971147;2;19;2;1929;129;5017;-11161;-20473;-8024;-7538
971157;2;19;2;1929;-1440;3908;-1257;-32768;-7621;-5189
971167;2;19;2;1929;-334;4506;6093;-12657;-7040;-6576
971177;2;19;2;1929;-183;2260;-663;2176;-7986;-8681
971187;2;19;2;1929;1245;-2322;-3394;-37;-8697;-9908
971197;2;19;2;1929;2030;-2957;-4946;453;-8002;-11062
971207;2;19;2;1929;398;-577;-6459;1419;-8414;-11408
971217;2;19;2;1929;-1440;3312;-6986;-42;-10304;-11263
971227;2;19;2;1929;-2234;8487;-6827;-6860;-12183;-8940
971237;2;19;2;1929;-5694;11296;-3960;-14480;-12528;-4610
971247;2;19;2;1929;-9458;12731;-2835;-17591;-10851;-3593
971257;2;19;2;1929;-11466;12574;-3985;-18229;-8034;-5365
971267;2;19;2;1929;-12064;10342;-2097;-15226;-4762;-8543
971277;2;19;2;1929;-10306;8823;762;-6077;-3677;-10395
971287;2;19;2;1929;-6793;7200;693;-2970;-4240;-10643
971297;2;19;2;1929;-3760;5434;4526;-7279;-5522;-10736
971307;2;19;2;1929;-2664;3707;5498;336;-7831;-10833
971317;2;19;2;1929;-2870;815;648;8477;-9661;-8319
971327;2;19;2;1929;-3558;-727;-2690;11606;-9568;-4541
971337;2;19;2;1929;-2228;-1553;-5063;8584;-8228;-3247
971347;2;19;2;1929;-125;-1176;-5130;-1730;-5503;-4413
971357;2;19;2;1929;1258;-777;-1495;-9896;-3277;-6158
971367;2;19;2;1929;2576;139;3075;-8929;-3479;-7170
971377;2;19;2;1929;2400;629;2516;-2794;-4884;-7946
971387;2;19;2;1929;1095;245;397;-2650;-5533;-7770
971397;2;19;2;1929;244;342;324;-7673;-6335;-7177
971407;2;19;2;1929;-1080;-364;1037;-9822;-6764;-8416
971417;2;19;2;1929;-2745;-433;1154;-8627;-6513;-10203
971427;2;19;2;1930;-4339;-33;1015;-8748;-6987;-11024
971437;2;19;2;1930;-5820;841;2128;-8723;-7782;-10651
971447;2;19;2;1930;-6061;1791;2629;-6348;-8720;-9323
971457;2;19;2;1930;-5783;2664;2543;-4534;-9183;-8083
971467;2;19;2;1930;-5720;3282;3222;-2989;-9048;-6458
971477;2;19;2;1930;-5690;3689;3957;-1443;-9553;-3943
971487;2;19;2;1930;-5246;3415;3450;-862;-10493;-1257
971497;2;19;2;1930;-5399;2382;3960;34;-11036;672
971507;2;19;2;1930;-6568;2032;4907;2547;-12604;2354
971517;2;19;2;1930;-6685;2386;3533;6868;-13974;4284
971527;2;19;2;1930;-4760;2241;1012;12412;-12504;2100
971537;2;19;2;1930;-3842;2099;-2112;15153;-8112;-3785
971547;2;19;2;1930;-3685;1791;-4661;11231;-4265;-8850
971557;2;19;2;1930;-3832;1306;-5548;-999;-2034;-11195
971567;2;19;2;1930;-4271;366;-3855;-17683;-985;-11500
971577;2;19;2;1930;-4617;-368;-684;-29422;-1026;-10569
971587;2;19;2;1930;-5187;-514;2300;-32052;-1279;-8205
971597;2;19;2;1930;-4830;-309;4964;-22900;-2067;-5345
971607;2;19;2;1930;-3151;-330;4301;-10191;-2221;-3940
971617;2;19;2;1930;-1963;-1038;1403;-2948;388;-5475
971627;2;19;2;1930;-1857;-1307;836;-2135;3141;-8164
971637;2;19;2;1930;-2320;-1174;1314;-2027;4287;-10032
971647;2;19;2;1930;-2943;-914;1797;-1419;3443;-10008
971657;2;19;2;1930;-3816;-825;1842;-454;1212;-8415
971667;2;19;2;1930;-4387;-626;1200;-160;-556;-6008
971677;2;19;2;1930;-4051;-796;159;-2263;-1257;-4392
971687;2;19;2;1930;-3154;-1164;-337;-7630;-1346;-4026
971697;2;19;2;1930;-2694;-1641;196;-13371;-1283;-5168
971707;2;19;2;1930;-3467;-1554;1325;-16175;-1379;-6593
971717;2;19;2;1930;-4855;-1380;1834;-15877;-1459;-7766
971727;2;19;2;1930;-6083;-844;2429;-15968;-2105;-7338
971737;2;19;2;1930;-6525;-588;5071;-13047;-3570;-4624
971747;2;19;2;1930;-5751;-946;4952;-4511;-4586;-2140
971757;2;19;2;1930;-5036;-2064;3733;-370;-5116;-998
971767;2;19;2;1930;-4012;-2881;3849;1650;-5711;658
971777;2;19;2;1930;-3229;-3921;3674;4811;-6811;2851
971787;2;19;2;1930;-2436;-4101;3518;6427;-8596;4729
971797;2;19;2;1930;-2308;-2966;3244;5987;-9466;6297
971807;2;19;2;1930;-2812;-1889;3123;4677;-8964;7438
971817;2;19;2;1930;-3108;-1056;2793;2812;-7694;7716
971827;2;19;2;1930;-2893;-233;2527;2023;-6499;7525
971837;2;19;2;1930;-2476;508;2214;1945;-5460;6472
971847;2;19;2;1930;-1984;1158;1593;1415;-4306;4863
971857;2;19;2;1930;-1642;1456;1207;-271;-2815;2861
971867;2;19;2;1930;-1868;1379;1044;-2361;-1232;928
971877;2;19;2;1930;-2335;1002;1469;-3562;-274;-513
971887;2;19;2;1930;-2976;752;2123;-3034;99;-1154
971897;2;19;2;1930;-3669;382;2243;-1664;-9;-931
971907;2;19;2;1930;-4370;-116;2002;-1169;-169;-514
971917;2;19;2;1930;-4486;-459;2121;-1105;-147;12
971927;2;19;2;1931;-4611;-574;2397;-218;-463;571
971937;2;19;2;1931;-4893;-840;2416;939;-1509;1346
971947;2;19;2;1931;-4773;-654;2342;1504;-2586;2347
971957;2;19;2;1931;-4305;-493;2474;1763;-2980;2941
971967;2;19;2;1931;-3915;-301;2747;2281;-2760;2717
971977;2;19;2;1931;-3687;-12;2679;2780;-2262;2141
971987;2;19;2;1931;-3624;172;2413;2876;-1865;1787
971997;2;19;2;1931;-3673;144;2199;3121;-1902;1711
972007;2;19;2;1931;-3777;324;2164;3452;-2119;2086
972017;2;19;2;1931;-3759;627;2370;3842;-2678;3147
972027;2;19;2;1931;-3394;396;1801;4176;-3032;3956
972037;2;19;2;1931;-2835;401;1901;3407;-2837;3813
972047;2;19;2;1931;-2785;807;2187;1753;-2374;3059
972057;2;19;2;1931;-2876;960;2511;874;-1599;1800
972067;2;19;2;1931;-3181;986;2593;1117;-544;544
972077;2;19;2;1931;-3455;1017;2306;2203;254;169
972087;2;19;2;1931;-3223;740;1727;2701;381;484
972097;2;19;2;1931;-2680;147;1485;1747;231;628
972107;2;19;2;1931;-2476;-288;1926;315;288;661
972117;2;19;2;1931;-2228;-532;2738;-376;216;453
972127;2;19;2;1931;-2306;-373;3158;38;350;-54
972137;2;19;2;1931;-2696;-330;2920;1435;247;-429
972147;2;19;2;1931;-3336;-317;2282;2238;-169;-202
972157;2;19;2;1931;-3949;-80;2039;2770;-520;672
972167;2;19;2;1931;-4238;26;2462;3600;-828;1838
972177;2;19;2;1931;-4375;251;2837;4591;-904;2731
972187;2;19;2;1931;-4290;609;3411;5356;-501;3461
972197;2;19;2;1931;-3963;700;3763;5987;-183;3482
972207;2;19;2;1931;-4203;1226;3564;6956;-109;3581
972217;2;19;2;1931;-3867;1282;2998;7880;-624;4505
972227;2;19;2;1931;-3561;1187;2459;8141;-1034;5169
972237;2;19;2;1931;-3070;1201;2153;8188;-1084;5644
972247;2;19;2;1931;-2665;1410;2061;7351;-1182;5027
972257;2;19;2;1931;-2840;1663;2336;6117;-934;4192
972267;2;19;2;1931;-2822;1705;2668;5521;-853;3643
972277;2;19;2;1931;-2965;1730;2710;5275;-702;3053
972287;2;19;2;1931;-2992;1822;2706;5094;-565;2997
972297;2;19;2;1931;-3076;1920;2453;5031;-431;3216
972307;2;19;2;1931;-3214;1763;2070;5029;-208;3455
972317;2;19;2;1931;-3153;1778;2149;4951;-266;3847
972327;2;19;2;1931;-2930;1825;2142;4897;-318;4193
972337;2;19;2;1931;-2773;1883;2283;5047;-392;4230
972347;2;19;2;1931;-2653;1725;2253;5359;-452;4245
972357;2;19;2;1931;-2611;1841;2347;5604;-490;4224
972367;2;19;2;1931;-2504;2018;2428;5955;-525;4085
972377;2;19;2;1931;-2520;2087;2231;6686;-365;3778
972387;2;19;2;1931;-2679;2023;1993;6922;-287;3643
972397;2;19;2;1931;-2571;2027;1817;6632;-177;3572
972407;2;19;2;1931;-2410;2219;1679;6475;-204;3622
972417;2;19;2;1931;-2282;2298;1557;6371;-453;3989
972427;2;19;2;1932;-2166;2227;1390;6102;-703;4106
972437;2;19;2;1932;-2186;2362;1413;5530;-713;4048
972447;2;19;2;1932;-2122;2433;1390;5518;-604;3850
972457;2;19;2;1932;-2007;2371;1364;5673;-393;3514
972467;2;19;2;1932;-2076;2400;1338;5938;-224;3137
972477;2;19;2;1932;-2103;2494;1430;6385;-363;3129
972487;2;19;2;1932;-1987;2538;1341;6764;-527;3102
972497;2;19;2;1932;-1944;2751;1435;7125;-700;3069
972507;2;19;2;1932;-1999;2986;1369;7163;-1001;3082
972517;2;19;2;1932;-2101;3140;1129;6790;-1120;3172
972527;2;19;2;1932;-2088;3243;1000;6583;-1136;3279
972537;2;19;2;1932;-2031;3373;779;6879;-1122;3440
972547;2;19;2;1932;-1959;3437;715;7056;-1236;3707
972557;2;19;2;1932;-1778;3415;854;7195;-1350;3751
972567;2;19;2;1932;-1667;3351;776;7338;-1144;3451
972577;2;19;2;1932;-1724;3392;722;6808;-967;3036
972587;2;19;2;1932;-1765;3493;798;6341;-724;2450
972597;2;19;2;1932;-1777;3612;715;6264;-348;1942
972607;2;19;2;1932;-1773;3443;557;6435;63;1459
972617;2;19;2;1932;-1905;3285;300;6740;393;1042
972627;2;19;2;1932;-2109;3210;-112;6580;693;843
972637;2;19;2;1932;-2206;3065;-319;5941;703;945
972647;2;19;2;1932;-2156;2884;-193;5585;723;880
972657;2;19;2;1932;-2112;3153;161;5714;617;803
972667;2;19;2;1932;-2021;3343;309;5888;300;1010
972677;2;19;2;1932;-1880;3197;254;5905;298;998
972687;2;19;2;1932;-1965;3159;187;5833;502;786
972697;2;19;2;1932;-2295;3158;28;5938;632;821
972707;2;19;2;1932;-2384;3222;25;6297;681;1190
972717;2;19;2;1932;-2209;3272;32;6540;565;1515
972727;2;19;2;1932;-1965;3389;-99;6570;497;1712
972737;2;19;2;1932;-1850;3438;-278;6431;555;1747
972747;2;19;2;1932;-1855;3515;-430;6237;555;1796
972757;2;19;2;1932;-1838;3523;-793;5849;540;1857
972767;2;19;2;1932;-1826;3544;-1126;5182;713;1906
972777;2;19;2;1932;-1587;3549;-1223;4289;1001;1828
972787;2;19;2;1932;-1335;3513;-953;3540;1284;1560
972797;2;19;2;1932;-1062;3566;-633;3176;1415;1078
972807;2;19;2;1932;-915;3674;-393;2955;1506;537
972817;2;19;2;1932;-1009;3741;-295;2787;1556;-123
972827;2;19;2;1932;-1371;3733;-260;2850;1642;-626
972837;2;19;2;1932;-1859;3728;-232;3176;1662;-780
972847;2;19;2;1932;-2143;3691;-365;3490;1678;-572
972857;2;19;2;1932;-2156;3634;-376;3638;1664;-211
972867;2;19;2;1932;-1953;3594;-320;3654;1709;45
972877;2;19;2;1932;-1794;3607;-278;3703;1716;104
972887;2;19;2;1932;-1588;3638;-347;3780;1648;22
972897;2;19;2;1932;-1388;3605;-416;3758;1580;-322
972907;2;19;2;1932;-1292;3593;-428;3680;1590;-884
972917;2;19;2;1932;-1380;3591;-528;3560;1614;-1361
972927;2;19;2;1933;-1644;3555;-697;3437;1774;-1726
972937;2;19;2;1933;-2006;3475;-893;3254;2111;-1932
972947;2;19;2;1933;-2287;3408;-999;3044;2589;-2034
972957;2;19;2;1933;-2461;3325;-912;2952;2885;-1840
972967;2;19;2;1933;-2524;3409;-694;2903;2968;-1479
972977;2;19;2;1933;-2402;3544;-434;2929;2700;-849
972987;2;19;2;1933;-2356;3678;-357;3074;2458;-253
972997;2;19;2;1933;-2284;3663;-485;3252;2260;236
973007;2;19;2;1933;-2069;3538;-686;3534;2125;261
973017;2;19;2;1933;-1740;3490;-944;4132;2195;57
973027;2;19;2;1933;-1607;3683;-1064;4960;2308;81
973037;2;19;2;1933;-1389;3684;-1338;5907;2231;188
973047;2;19;2;1933;-1251;3725;-1670;6375;2150;76
973057;2;19;2;1933;-1324;4243;-1771;6432;2178;-31
973067;2;19;2;1933;-1515;4367;-1586;6889;2075;328
973077;2;19;2;1933;-1966;4276;-1567;7116;2031;802
973087;2;19;2;1933;-2352;3658;-1531;6534;1981;1340
973097;2;19;2;1933;-2441;3105;-1467;5246;2041;1503
973107;2;19;2;1933;-2359;2705;-1080;4518;2095;1460
973117;2;19;2;1933;-2608;2643;-942;4920;2051;1390
973127;2;19;2;1933;-2455;2368;-1179;5704;2061;1345
973137;2;19;2;1933;-2206;2265;-1696;5725;2125;1059
973147;2;19;2;1933;-1878;2165;-2096;4594;2045;795
973157;2;19;2;1933;-1877;2380;-2195;3206;1664;861
973167;2;19;2;1933;-1923;2637;-2232;2427;1053;1386
973177;2;19;2;1933;-1937;2846;-2380;2322;648;1789
973187;2;19;2;1933;-1853;2871;-2581;2135;628;1822
973197;2;19;2;1933;-1815;2973;-2452;1379;671;1633
973207;2;19;2;1933;-1811;3197;-1997;329;246;1740
973217;2;19;2;1933;-1839;3290;-1666;-188;-268;2044
973227;2;19;2;1933;-1951;3078;-1798;226;-348;2142
973237;2;19;2;1933;-2223;2682;-2371;1106;140;1955
973247;2;19;2;1933;-2435;2364;-2877;1682;739;1643
973257;2;19;2;1933;-2449;2308;-2975;2309;1360;1301
973267;2;19;2;1933;-2280;2461;-2882;3264;1639;1365
973277;2;19;2;1933;-2071;2710;-3045;3515;1609;1863
973287;2;19;2;1933;-2045;2914;-3338;2748;1310;2605
973297;2;19;2;1933;-2008;3074;-3780;1470;1061;3079
973307;2;19;2;1933;-1891;3183;-3920;517;1232;2828
973317;2;19;2;1933;-1753;3599;-3903;25;1196;1995
973327;2;19;2;1933;-2237;3979;-3581;-275;942;1983
973337;2;19;2;1933;-2680;4131;-3237;-663;234;2431
973347;2;19;2;1933;-3238;4395;-2931;-1484;-224;2777
973357;2;19;2;1933;-3406;4346;-2666;-2023;-46;3152
973367;2;19;2;1933;-3308;4193;-2600;-2234;488;3025
973377;2;19;2;1933;-2626;4354;-2480;-1488;1004;3011
973387;2;19;2;1933;-2077;3842;-2414;-614;1269;3142
973397;2;19;2;1933;-1383;3484;-2110;248;1064;3167
973407;2;19;2;1933;-912;3056;-2119;1112;826;2842
973417;2;19;2;1933;-667;3050;-2066;1607;586;2563
973427;2;19;2;1934;-133;2968;-1971;2428;55;2048
973437;2;19;2;1934;-278;3025;-2150;3902;-602;2155
973447;2;19;2;1934;-575;2674;-2956;4782;-1568;2487
973457;2;19;2;1934;-939;2145;-3593;4504;-2097;2308
973467;2;19;2;1934;-1322;1830;-4056;3319;-2086;1702
973477;2;19;2;1934;-1673;1862;-4001;1217;-2002;1256
973487;2;19;2;1934;-1615;1699;-3596;-681;-2049;930
973497;2;19;2;1934;-1468;1939;-3124;-2083;-2176;558
973507;2;19;2;1934;-1295;2260;-2483;-3015;-2531;504
973517;2;19;2;1934;-1044;2594;-1354;-3055;-3054;376
973527;2;19;2;1934;-563;3573;181;456;-3559;257
973537;2;19;2;1934;-354;3839;-797;4715;-4165;549
973547;2;19;2;1934;-420;3311;-1680;4012;-4649;938
973557;2;19;2;1934;-542;3161;-1776;2732;-4914;1345
973567;2;19;2;1934;-655;3461;-2046;3208;-5370;1882
973577;2;19;2;1934;-683;3746;-2662;4257;-5702;2773
973587;2;19;2;1934;-589;3414;-3293;4884;-5340;3582
973597;2;19;2;1934;-721;3544;-3800;4323;-4319;3791
973607;2;19;2;1934;-651;3583;-3622;3284;-3180;4012
973617;2;19;2;1934;-566;3718;-3116;2498;-2383;4426
973627;2;19;2;1934;-113;3655;-2714;1996;-1843;4748
973637;2;19;2;1934;291;3573;-2264;1601;-1400;4670
973647;2;19;2;1934;524;3360;-1918;1707;-1079;4350
973657;2;19;2;1934;412;3209;-1837;2070;-969;3967
973667;2;19;2;1934;75;2955;-1890;2156;-1076;3742
973677;2;19;2;1934;-114;2844;-1937;2096;-1224;3584
973687;2;19;2;1934;-255;2897;-2033;2080;-1183;3360
973697;2;19;2;1934;-373;2942;-2023;2038;-939;3190
973707;2;19;2;1934;-407;2857;-1878;2071;-629;2824
973717;2;19;2;1934;-339;2798;-1687;2430;-439;2300
973727;2;19;2;1934;-273;2739;-1626;2729;-508;1787
973737;2;19;2;1934;-247;2578;-1695;3212;-467;990
973747;2;19;2;1934;-469;2557;-1780;3667;-264;616
973757;2;19;2;1934;-759;2947;-2185;3540;-376;894
973767;2;19;2;1934;-955;2965;-2389;3194;-857;1373
973777;2;19;2;1934;-1287;3058;-2710;3066;-1149;1753
973787;2;19;2;1934;-1462;3195;-2951;2920;-1080;1936
973797;2;19;2;1934;-1515;3335;-3182;2868;-693;1711
973807;2;19;2;1934;-1426;3486;-3309;2999;-259;1083
973817;2;19;2;1934;-1338;3629;-3401;3210;-59;523
973827;2;19;2;1934;-1207;3862;-3526;3327;-261;213
973837;2;19;2;1934;-882;3737;-3774;3204;-890;-177
973847;2;19;2;1934;-961;3802;-4072;2776;-1367;-638
973857;2;19;2;1934;-1274;3714;-4318;2309;-1645;-790
973867;2;19;2;1934;-1551;3662;-4423;1905;-1847;-854
973877;2;19;2;1934;-1794;3604;-4515;1400;-2032;-746
973887;2;19;2;1934;-1908;3412;-4565;701;-1984;-684
973897;2;19;2;1934;-1849;3171;-4323;75;-1710;-957
973907;2;19;2;1934;-1711;3054;-3983;-95;-1586;-1418
973917;2;19;2;1934;-1575;3011;-3620;3;-1643;-1586
973927;2;19;2;1935;-1426;3036;-3330;-41;-2018;-1514
973937;2;19;2;1935;-1237;3183;-3145;-242;-2569;-1448
973947;2;19;2;1935;-1300;3311;-2930;-341;-3176;-1165
973957;2;19;2;1935;-1240;3234;-2683;-101;-3643;-809
973967;2;19;2;1935;-1231;3189;-2525;511;-3844;-747
973977;2;19;2;1935;-1276;3067;-2437;1361;-3771;-769
973987;2;19;2;1935;-1376;2866;-2515;2398;-3511;-925
973997;2;19;2;1935;-1423;2602;-2703;3416;-3062;-1273
974007;2;19;2;1935;-1416;2239;-2892;4156;-2541;-2018
974017;2;19;2;1935;-1510;2083;-3091;4344;-1956;-2864
974027;2;19;2;1935;-1651;2067;-3310;4006;-1527;-3431
974037;2;19;2;1935;-1804;2042;-3391;3236;-1378;-3643
974047;2;19;2;1935;-1892;2079;-3431;2299;-1456;-3517
974057;2;19;2;1935;-1832;2159;-3338;1355;-1701;-3150
974067;2;19;2;1935;-1648;2258;-3231;402;-2088;-2716
974077;2;19;2;1935;-1425;2256;-3061;-248;-2425;-2518
974087;2;19;2;1935;-1299;2279;-2960;-359;-2563;-2706
974097;2;19;2;1935;-1390;2331;-2865;160;-2716;-2892
974107;2;19;2;1935;-1547;2272;-2871;933;-2812;-2949
974117;2;19;2;1935;-1780;2302;-3058;1442;-2961;-2792
974127;2;19;2;1935;-1927;2227;-3396;1551;-2917;-2690
974137;2;19;2;1935;-2183;2124;-3696;1390;-2464;-2704
974147;2;19;2;1935;-2387;1981;-3844;1180;-1794;-2476
974157;2;19;2;1935;-2406;1918;-3896;875;-1180;-2190
974167;2;19;2;1935;-2267;1846;-3842;391;-745;-1867
974177;2;19;2;1935;-2068;1751;-3703;-241;-544;-1445
974187;2;19;2;1935;-1723;1688;-3461;-936;-449;-970
974197;2;19;2;1935;-1436;1648;-3244;-1600;-377;-705
974207;2;19;2;1935;-1300;1600;-3012;-2047;-325;-655
974217;2;19;2;1935;-1310;1491;-2755;-2089;-342;-569
974227;2;19;2;1935;-1403;1523;-2737;-1880;-385;-251
974237;2;19;2;1935;-1401;1495;-2823;-1732;-361;8
974247;2;19;2;1935;-1505;1486;-2908;-1788;-265;233
974257;2;19;2;1935;-1532;1366;-2917;-2048;-81;282
974267;2;19;2;1935;-1566;1363;-2852;-2354;94;141
974277;2;19;2;1935;-1534;1456;-2751;-2801;141;123
974287;2;19;2;1935;-1428;1584;-2564;-3340;-52;278
974297;2;19;2;1935;-1324;1716;-2393;-3854;-528;505
974307;2;19;2;1935;-1333;1880;-2309;-4196;-1183;879
974317;2;19;2;1935;-1334;1909;-2259;-4350;-1754;1240
974327;2;19;2;1935;-1434;2000;-2227;-4302;-2063;1418
974337;2;19;2;1935;-1645;2113;-2201;-4109;-2326;1704
974347;2;19;2;1935;-1807;2139;-2177;-3644;-2504;2046
974357;2;19;2;1935;-1917;2120;-2221;-2990;-2432;2395
974367;2;19;2;1935;-2042;2049;-2242;-2305;-2113;2550
974377;2;19;2;1935;-2092;2014;-2219;-1632;-1777;2586
974387;2;19;2;1935;-2069;2050;-2147;-1094;-1465;2739
974397;2;19;2;1935;-1974;2147;-2133;-778;-1310;3143
974407;2;19;2;1935;-1724;2056;-2083;-510;-1209;3455
974417;2;19;2;1935;-1574;1960;-1891;-130;-1090;3512
974427;2;19;2;1936;-1397;1850;-1754;451;-1086;3522
974437;2;19;2;1936;-1254;1749;-1680;1052;-1126;3399
974447;2;19;2;1936;-1198;1678;-1645;1612;-1196;3193
974457;2;19;2;1936;-1193;1704;-1695;1940;-1267;3039
974467;2;19;2;1936;-1200;1797;-1720;1990;-1467;2992
974477;2;19;2;1936;-1299;1877;-1758;1915;-1853;3187
974487;2;19;2;1936;-1384;1999;-1827;1788;-2120;3460
974497;2;19;2;1936;-1363;2011;-1896;1608;-2278;3783
974507;2;19;2;1936;-1210;1862;-1898;1545;-2208;3671
974517;2;19;2;1936;-1220;1837;-1872;1599;-1907;3203
974527;2;19;2;1936;-1289;1952;-1792;1817;-1850;3048
974537;2;19;2;1936;-1190;1914;-1795;2048;-1979;3247
974547;2;19;2;1936;-1052;1884;-1752;2038;-2213;3319
974557;2;19;2;1936;-897;1910;-1770;1639;-2378;3238
974567;2;19;2;1936;-800;1964;-1716;1109;-2366;2929
974577;2;19;2;1936;-818;2115;-1603;824;-2410;2674
974587;2;19;2;1936;-838;2222;-1567;888;-2598;2704
974597;2;19;2;1936;-860;2373;-1651;1011;-2709;2743
974607;2;19;2;1936;-846;2532;-1776;887;-2657;2688
974617;2;19;2;1936;-886;2689;-1882;603;-2422;2440
974627;2;19;2;1936;-881;2859;-1934;377;-2085;2067
974637;2;19;2;1936;-935;2958;-2054;361;-1638;1571
974647;2;19;2;1936;-1141;3179;-2158;608;-1253;1206
974657;2;19;2;1936;-1375;3259;-2322;981;-972;1266
974667;2;19;2;1936;-1503;3199;-2590;1360;-732;1413
974677;2;19;2;1936;-1597;3078;-2763;1475;-568;1674
974687;2;19;2;1936;-1634;2720;-3000;1256;-461;1822
974697;2;19;2;1936;-1670;2400;-3260;891;-211;1596
974707;2;19;2;1936;-1883;2237;-3487;442;231;1149
974717;2;19;2;1936;-2118;2207;-3619;163;509;835
974727;2;19;2;1936;-2114;2228;-3666;94;515;859
974737;2;19;2;1936;-1968;2198;-3798;152;430;913
974747;2;19;2;1936;-1783;2086;-3894;171;429;582
974757;2;19;2;1936;-1711;2110;-3957;38;461;-85
974767;2;19;2;1936;-1733;2167;-3940;-140;320;-634
974777;2;19;2;1936;-1935;2122;-3961;-256;75;-930
974787;2;19;2;1936;-2122;1992;-3996;-383;-130;-986
974797;2;19;2;1936;-2239;1853;-4040;-702;-173;-1049
974807;2;19;2;1936;-2407;1855;-3945;-1301;-165;-927
974817;2;19;2;1936;-2402;1870;-3743;-2071;-290;-523
974827;2;19;2;1936;-2221;1793;-3463;-2763;-465;-161
974837;2;19;2;1936;-2044;1928;-3224;-3232;-547;-90
974847;2;19;2;1936;-2073;2276;-3006;-3321;-666;138
974857;2;19;2;1936;-1943;2361;-2882;-2676;-961;459
974867;2;19;2;1936;-1835;2434;-2881;-1579;-1009;569
974877;2;19;2;1936;-1705;2395;-2982;-375;-842;343
974887;2;19;2;1936;-1689;2206;-3175;860;-460;-249
974897;2;19;2;1936;-1957;2223;-3419;2052;-120;-645
974907;2;19;2;1936;-2118;1959;-3727;2847;-58;-495
974917;2;19;2;1936;-2208;1820;-4090;2833;50;-224
