timestamp;subject_id;activity;label;seq;ax;ay;az;gx;gy;gz
1143927;2;19;2;2275;-729;3080;-1405;-721;2000;-6545
1143937;2;19;2;2275;-981;3098;-1409;-1200;2336;-6572
1143947;2;19;2;2275;-1222;3300;-1447;-1588;2630;-6355
1143957;2;19;2;2275;-1352;3549;-1432;-1862;2881;-6234
1143967;2;19;2;2275;-1435;3749;-1249;-1838;3059;-5990
1143977;2;19;2;2275;-1369;3748;-1132;-1511;3163;-5874
1143987;2;19;2;2275;-1347;3824;-1071;-959;3207;-5894
1143997;2;19;2;2275;-1456;3878;-849;-622;2823;-5855
1144007;2;19;2;2275;-1523;3851;-832;-325;1975;-5998
1144017;2;19;2;2275;-1652;4133;-1231;-65;1629;-5756
1144027;2;19;2;2275;-1689;4251;-1464;-422;1547;-5191
1144037;2;19;2;2275;-1808;4104;-1362;-885;1712;-5073
1144047;2;19;2;2275;-1773;4355;-1438;-1549;1918;-4898
1144057;2;19;2;2275;-1749;4516;-1370;-2631;1951;-4652
1144067;2;19;2;2275;-1746;4646;-1343;-3267;2269;-4268
1144077;2;19;2;2275;-1692;5006;-1456;-3615;2517;-4025
1144087;2;19;2;2275;-1677;5193;-1256;-3917;2652;-3448
1144097;2;19;2;2275;-1652;5464;-1326;-3935;2920;-2664
1144107;2;19;2;2275;-1532;5501;-1314;-3638;3145;-1439
1144117;2;19;2;2275;-1407;5378;-1354;-3290;3332;-1014
1144127;2;19;2;2275;-1446;4751;-1553;-3948;3047;-1372
1144137;2;19;2;2275;-1219;5369;-2327;-5446;4065;-1028
1144147;2;19;2;2275;-853;5353;-2022;-5900;5440;-557
1144157;2;19;2;2275;-590;4998;-1570;-4610;6573;-183
1144167;2;19;2;2275;-301;4542;-1253;-2151;6931;-318
1144177;2;19;2;2275;-134;4490;-1613;-391;7028;-359
1144187;2;19;2;2275;-109;4242;-1901;-378;6920;-236
1144197;2;19;2;2275;-241;4017;-2094;-1816;6952;158
1144207;2;19;2;2275;-384;3706;-2164;-3763;6880;315
1144217;2;19;2;2275;-462;3498;-2098;-5326;6969;229
1144227;2;19;2;2275;-591;3372;-1836;-6331;7030;57
1144237;2;19;2;2275;-732;3235;-1535;-6748;6856;-18
1144247;2;19;2;2275;-918;3323;-1315;-7078;6437;146
1144257;2;19;2;2275;-942;3311;-1277;-7758;5934;603
1144267;2;19;2;2275;-1008;3088;-889;-8625;5435;946
1144277;2;19;2;2275;-1091;3147;-710;-9334;5156;1001
1144287;2;19;2;2275;-1360;3450;-397;-10094;4896;1371
1144297;2;19;2;2275;-1469;3772;-15;-10836;4283;2233
1144307;2;19;2;2275;-1495;3899;115;-11198;3408;2907
1144317;2;19;2;2275;-1529;3999;-27;-10814;3426;3276
1144327;2;19;2;2275;-1723;4218;-30;-9842;4334;3022
1144337;2;19;2;2275;-1927;4879;602;-7267;5102;2912
1144347;2;19;2;2275;-1571;4635;573;-4846;4750;3332
1144357;2;19;2;2275;-1385;4337;169;-3730;4477;3565
1144367;2;19;2;2275;-1530;4574;-23;-3577;4910;3597
1144377;2;19;2;2275;-1641;4589;63;-4257;5149;3431
1144387;2;19;2;2275;-1542;4609;280;-4608;5221;3245
1144397;2;19;2;2275;-1439;4712;512;-4238;5069;3211
1144407;2;19;2;2275;-1388;4736;573;-2967;4760;3267
1144417;2;19;2;2275;-1351;4662;390;-1482;4668;3561
1144427;2;19;2;2276;-1216;4484;76;-608;4774;3691
1144437;2;19;2;2276;-1111;4232;-243;-434;5007;3648
1144447;2;19;2;2276;-664;4261;37;-593;5283;3242
1144457;2;19;2;2276;-908;4387;653;2039;5245;2479
1144467;2;19;2;2276;-918;4277;93;3999;5084;2627
1144477;2;19;2;2276;-854;4119;-571;3762;5067;2911
1144487;2;19;2;2276;-807;3860;-549;2541;5402;3164
1144497;2;19;2;2276;-744;3666;-228;1423;5509;3206
1144507;2;19;2;2276;-470;3652;-105;873;5573;3119
1144517;2;19;2;2276;-230;3858;-178;782;5557;3191
1144527;2;19;2;2276;14;3579;199;900;5665;3263
1144537;2;19;2;2276;123;3612;209;1323;5563;2902
1144547;2;19;2;2276;153;3654;-42;1875;5371;2573
1144557;2;19;2;2276;-1;3513;-286;2393;5278;2282
1144567;2;19;2;2276;-262;3519;-723;2786;5062;2321
1144577;2;19;2;2276;-482;3483;-1260;2644;4792;2737
1144587;2;19;2;2276;-570;3326;-1618;2025;4555;2966
1144597;2;19;2;2276;-617;3181;-1730;1188;4468;2795
1144607;2;19;2;2276;-642;3052;-1702;66;4678;2015
1144617;2;19;2;2276;-664;3258;-1566;-1270;5070;977
1144627;2;19;2;2276;-901;4051;-1007;-3589;5657;421
1144637;2;19;2;2276;-1021;5220;7;-6654;5713;1146
1144647;2;19;2;2276;-842;5665;1317;-9140;5158;2754
1144657;2;19;2;2276;-770;5469;2045;-8288;4662;3479
1144667;2;19;2;2276;-490;5187;2266;-4556;4544;2744
1144677;2;19;2;2276;-440;4661;1750;-387;4097;1389
1144687;2;19;2;2276;-188;4212;592;1469;3315;1081
1144697;2;19;2;2276;-40;3654;-164;693;2571;1202
1144707;2;19;2;2276;1;3136;-424;-1224;2334;1159
1144717;2;19;2;2276;1;3173;103;-3343;2546;1001
1144727;2;19;2;2276;78;3632;1749;-3588;2258;1170
1144737;2;19;2;2276;218;3949;2562;-702;1425;1190
1144747;2;19;2;2276;52;3916;1830;1727;918;1004
1144757;2;19;2;2276;-78;3923;1399;1916;685;874
1144767;2;19;2;2276;76;3935;1262;1629;669;988
1144777;2;19;2;2276;294;3858;1177;1920;816;966
1144787;2;19;2;2276;349;3932;1019;2672;818;852
1144797;2;19;2;2276;420;4125;639;3290;697;834
1144807;2;19;2;2276;293;4172;355;3489;702;929
1144817;2;19;2;2276;247;4142;127;3393;875;903
1144827;2;19;2;2276;236;4250;68;3288;1238;599
1144837;2;19;2;2276;301;4376;87;2950;1785;159
1144847;2;19;2;2276;328;4366;176;2528;2308;-236
1144857;2;19;2;2276;192;4299;74;2162;2807;-384
1144867;2;19;2;2276;145;4269;194;1746;3119;-499
1144877;2;19;2;2276;-50;4312;331;1540;2793;-270
1144887;2;19;2;2276;-198;4264;-14;1409;2576;275
1144897;2;19;2;2276;-260;4093;-108;964;2899;455
1144907;2;19;2;2276;-381;4136;49;264;3097;594
1144917;2;19;2;2276;-401;4053;107;-390;3204;896
1144927;2;19;2;2277;-307;3986;288;-740;3482;903
1144937;2;19;2;2277;-156;3973;559;-457;3828;616
1144947;2;19;2;2277;-103;4047;750;408;3907;327
1144957;2;19;2;2277;-132;4080;667;1463;3629;243
1144967;2;19;2;2277;-138;4060;434;2356;3444;85
1144977;2;19;2;2277;-146;4083;169;2906;3401;-301
1144987;2;19;2;2277;-143;4140;-87;3277;3416;-579
1144997;2;19;2;2277;-80;4020;-325;3305;3564;-692
1145007;2;19;2;2277;16;3993;-418;2938;3492;-921
1145017;2;19;2;2277;32;4021;-660;2123;3380;-1164
1145027;2;19;2;2277;-125;4127;-750;752;3463;-1239
1145037;2;19;2;2277;-308;4159;-710;-997;3508;-1162
1145047;2;19;2;2277;-466;4126;-540;-2519;3711;-1102
1145057;2;19;2;2277;-547;4203;-243;-3491;4051;-1018
1145067;2;19;2;2277;-588;4183;197;-3939;4183;-781
1145077;2;19;2;2277;-643;4287;410;-3686;4033;-465
1145087;2;19;2;2277;-573;4161;549;-3121;4058;-185
1145097;2;19;2;2277;-425;4252;622;-2479;3833;121
1145107;2;19;2;2277;-247;4096;546;-1849;3405;415
1145117;2;19;2;2277;-61;3970;451;-1406;2970;412
1145127;2;19;2;2277;68;3901;305;-1300;2698;224
1145137;2;19;2;2277;23;3925;315;-1454;2513;47
1145147;2;19;2;2277;-33;3925;387;-1542;2196;-46
1145157;2;19;2;2277;-10;3958;420;-1485;1935;-168
1145167;2;19;2;2277;-94;4006;392;-1400;1799;-108
1145177;2;19;2;2277;-90;4022;345;-1371;1675;-1
1145187;2;19;2;2277;-115;4032;307;-1413;1759;120
1145197;2;19;2;2277;-24;4040;584;-1380;1791;108
1145207;2;19;2;2277;-47;4152;686;-909;1649;165
1145217;2;19;2;2277;25;4098;536;-256;1394;232
1145227;2;19;2;2277;106;3124;-104;508;2326;-1268
1145237;2;19;2;2277;-283;4409;217;273;3070;-2553
1145247;2;19;2;2277;-32;5250;569;-1163;1872;-846
1145257;2;19;2;2277;368;4409;443;-1529;780;524
1145267;2;19;2;2277;284;3829;377;-731;995;273
1145277;2;19;2;2277;162;4065;448;-231;1472;-344
1145287;2;19;2;2277;60;4359;491;-437;1343;-428
1145297;2;19;2;2277;121;4233;400;-657;1080;-232
1145307;2;19;2;2277;136;4106;341;-641;857;-263
1145317;2;19;2;2277;134;4087;299;-581;889;-333
1145327;2;19;2;2277;203;4258;374;-608;937;-344
1145337;2;19;2;2277;224;4489;510;-413;685;-240
1145347;2;19;2;2277;188;4624;588;571;231;-7
1145357;2;19;2;2277;254;4648;495;2149;184;6
1145367;2;19;2;2277;222;4548;12;3986;425;-132
1145377;2;19;2;2277;222;4095;-762;4679;629;-191
1145387;2;19;2;2277;290;3667;-1584;3520;959;-462
1145397;2;19;2;2277;226;3573;-1915;884;1547;-792
1145407;2;19;2;2277;-45;3761;-1487;-2646;1935;-757
1145417;2;19;2;2277;-202;3989;-629;-5886;2078;-462
1145427;2;19;2;2278;-276;4119;265;-7706;2010;-179
1145437;2;19;2;2278;-243;4151;940;-7684;1944;113
1145447;2;19;2;2278;-177;4093;1375;-5870;2079;316
1145457;2;19;2;2278;-172;3997;1549;-3092;2129;313
1145467;2;19;2;2278;-156;3917;1492;-299;1713;190
1145477;2;19;2;2278;-13;3941;1131;1915;1306;71
1145487;2;19;2;2278;158;3978;851;3393;1145;-171
1145497;2;19;2;2278;216;4006;548;4541;1224;-399
1145507;2;19;2;2278;310;3933;322;5410;1499;-690
1145517;2;19;2;2278;292;3854;250;5807;1205;-1041
1145527;2;19;2;2278;307;3947;-141;5890;585;-1130
1145537;2;19;2;2278;218;4045;-626;5184;243;-1110
1145547;2;19;2;2278;-9;4238;-920;3516;139;-1008
1145557;2;19;2;2278;-208;4368;-999;1361;200;-715
1145567;2;19;2;2278;-337;4449;-781;-773;247;-286
1145577;2;19;2;2278;-303;4348;-451;-2396;347;152
1145587;2;19;2;2278;-175;4245;-10;-3169;475;382
1145597;2;19;2;2278;-12;4184;301;-3025;392;511
1145607;2;19;2;2278;162;4052;440;-2304;543;471
1145617;2;19;2;2278;223;3912;621;-1454;686;296
1145627;2;19;2;2278;222;3900;734;-437;520;-24
1145637;2;19;2;2278;245;3939;537;727;375;-276
1145647;2;19;2;2278;200;4034;357;1601;295;-466
1145657;2;19;2;2278;122;4076;191;2171;260;-547
1145667;2;19;2;2278;78;4164;10;2428;182;-514
1145677;2;19;2;2278;111;4166;-70;2372;182;-400
1145687;2;19;2;2278;90;4179;-171;2147;167;-333
1145697;2;19;2;2278;123;4111;-166;1883;129;-321
1145707;2;19;2;2278;81;4088;-221;1653;52;-333
1145717;2;19;2;2278;114;4081;-247;1446;-27;-434
1145727;2;19;2;2278;70;4094;-337;1215;-67;-449
1145737;2;19;2;2278;136;4085;-306;899;-93;-460
1145747;2;19;2;2278;161;4090;-314;550;-129;-397
1145757;2;19;2;2278;204;4069;-349;181;-195;-417
1145767;2;19;2;2278;194;4077;-337;-224;-217;-502
1145777;2;19;2;2278;177;4086;-301;-604;-198;-582
1145787;2;19;2;2278;127;4104;-222;-864;-147;-673
1145797;2;19;2;2278;122;4166;-164;-1024;-113;-707
1145807;2;19;2;2278;120;4176;-116;-1121;-82;-717
1145817;2;19;2;2278;108;4185;-17;-1137;-83;-702
1145827;2;19;2;2278;94;4178;13;-1031;-143;-684
1145837;2;19;2;2278;65;4150;-1;-819;-166;-660
1145847;2;19;2;2278;77;4100;-13;-630;-107;-698
1145857;2;19;2;2278;55;4109;-45;-487;-51;-728
1145867;2;19;2;2278;3;4091;-46;-457;-65;-672
1145877;2;19;2;2278;-37;4073;-101;-532;-51;-643
1145887;2;19;2;2278;-33;4102;-67;-676;77;-666
1145897;2;19;2;2278;-66;4146;-18;-741;136;-608
1145907;2;19;2;2278;-17;4129;-4;-719;176;-501
1145917;2;19;2;2278;17;4099;39;-695;270;-468
1145927;2;19;2;2279;24;4069;156;-533;256;-412
1145937;2;19;2;2279;12;4088;208;-169;92;-362
1145947;2;19;2;2279;25;4087;165;124;-65;-317
1145957;2;19;2;2279;63;4066;90;258;-149;-292
1145967;2;19;2;2279;89;4078;80;395;-160;-318
1145977;2;19;2;2279;17;4139;4;601;-227;-318
1145987;2;19;2;2279;-27;4133;-153;608;-279;-271
1145997;2;19;2;2279;-42;4139;-198;307;-250;-229
1146007;2;19;2;2279;19;4123;-138;-56;-175;-225
1146017;2;19;2;2279;62;4137;-5;-227;-156;-197
1146027;2;19;2;2279;19;4134;83;-124;-218;-188
1146037;2;19;2;2279;13;4126;18;35;-243;-205
1146047;2;19;2;2279;48;4089;9;128;-146;-286
1146057;2;19;2;2279;104;4078;25;204;-167;-330
1146067;2;19;2;2279;55;4085;-34;277;-191;-366
1146077;2;19;2;2279;-17;4127;-105;334;-130;-387
1146087;2;19;2;2279;-111;4146;-151;287;-111;-318
1146097;2;19;2;2279;-77;4131;-215;111;-107;-204
1146107;2;19;2;2279;-71;4163;-185;-189;-71;-102
1146117;2;19;2;2279;-32;4149;-143;-422;-39;-15
1146127;2;19;2;2279;22;4138;-64;-499;59;-35
1146137;2;19;2;2279;57;4126;24;-412;120;-74
1146147;2;19;2;2279;71;4143;79;-237;175;-129
1146157;2;19;2;2279;70;4138;73;-43;156;-179
1146167;2;19;2;2279;86;4117;17;91;115;-209
1146177;2;19;2;2279;34;4107;-107;102;34;-182
1146187;2;19;2;2279;13;4119;-179;13;15;-150
1146197;2;19;2;2279;-19;4118;-248;-170;85;-109
1146207;2;19;2;2279;-15;4118;-214;-351;234;-142
1146217;2;19;2;2279;-8;4126;-194;-446;299;-137
1146227;2;19;2;2279;14;4072;-187;-500;353;-115
1146237;2;19;2;2279;-19;4083;-166;-523;510;-162
1146247;2;19;2;2279;-22;4086;-109;-535;610;-175
1146257;2;19;2;2279;-62;4092;-42;-467;657;-140
1146267;2;19;2;2279;-58;4122;-11;-322;668;-73
1146277;2;19;2;2279;-50;4130;-24;-132;716;-30
1146287;2;19;2;2279;-70;4132;-66;59;799;12
1146297;2;19;2;2279;-58;4088;-110;152;874;38
1146307;2;19;2;2279;-34;4068;-115;191;918;58
1146317;2;19;2;2279;-37;4109;-91;213;885;91
1146327;2;19;2;2279;-46;4105;-117;200;882;121
1146337;2;19;2;2279;-12;4105;-98;153;993;38
1146347;2;19;2;2279;-38;4135;-18;189;998;-2
1146357;2;19;2;2279;-57;4148;-65;301;939;23
1146367;2;19;2;2279;-120;4184;-139;363;932;33
1146377;2;19;2;2279;-111;4192;-162;277;975;67
1146387;2;19;2;2279;-104;4159;-198;123;1028;117
1146397;2;19;2;2279;-75;4109;-195;-10;1099;151
1146407;2;19;2;2279;-29;4082;-188;-58;1191;110
1146417;2;19;2;2279;2;4123;-167;-59;1269;42
1146427;2;19;2;2280;-23;4168;-159;-44;1258;15
1146437;2;19;2;2280;-75;4137;-185;-35;1237;36
1146447;2;19;2;2280;-78;4135;-165;-49;1288;25
1146457;2;19;2;2280;-88;4155;-106;-73;1304;70
1146467;2;19;2;2280;-54;4121;-130;18;1356;76
1146477;2;19;2;2280;-51;4097;-156;356;1449;29
1146487;2;19;2;2280;-8;4087;-236;637;1500;20
1146497;2;19;2;2280;57;4038;-336;731;1643;-64
1146507;2;19;2;2280;81;4038;-348;655;1800;-191
1146517;2;19;2;2280;80;4092;-334;575;1892;-239
1146527;2;19;2;2280;46;4124;-321;523;1964;-247
1146537;2;19;2;2280;-12;4159;-347;495;2104;-223
1146547;2;19;2;2280;2;4173;-329;519;2240;-158
1146557;2;19;2;2280;10;4144;-337;647;2361;-104
1146567;2;19;2;2280;79;4113;-356;800;2504;-90
1146577;2;19;2;2280;108;4079;-374;961;2602;-45
1146587;2;19;2;2280;134;4042;-408;1064;2695;-24
1146597;2;19;2;2280;160;4018;-443;1041;2867;-74
1146607;2;19;2;2280;162;4049;-402;1039;3070;-120
1146617;2;19;2;2280;140;4061;-422;1144;3162;-98
1146627;2;19;2;2280;115;4073;-430;1257;3208;-55
1146637;2;19;2;2280;172;4069;-506;1293;3306;-37
1146647;2;19;2;2280;197;4039;-576;1235;3502;-117
1146657;2;19;2;2280;244;4044;-621;1069;3690;-259
1146667;2;19;2;2280;271;4051;-635;799;3808;-368
1146677;2;19;2;2280;232;4075;-629;500;3937;-497
1146687;2;19;2;2280;179;4101;-654;181;4014;-497
1146697;2;19;2;2280;197;4123;-652;-245;4089;-481
1146707;2;19;2;2280;168;4131;-647;-707;4189;-464
1146717;2;19;2;2280;202;4108;-581;-1062;4301;-429
1146727;2;19;2;2280;217;4111;-503;-1212;4406;-400
1146737;2;19;2;2280;277;4043;-400;-1096;4491;-450
1146747;2;19;2;2280;345;3984;-326;-750;4528;-532
1146757;2;19;2;2280;326;3970;-320;-415;4441;-562
1146767;2;19;2;2280;267;3919;-332;-348;4356;-540
1146777;2;19;2;2280;170;3961;-232;-605;4257;-475
1146787;2;19;2;2280;39;4080;-22;-849;4153;-368
1146797;2;19;2;2280;-46;4175;227;-767;3998;-204
1146807;2;19;2;2280;-88;4277;443;-130;3832;-43
1146817;2;19;2;2280;-54;4199;443;936;3715;44
1146827;2;19;2;2280;-2;4150;311;2022;3646;0
1146837;2;19;2;2280;94;4035;72;2835;3627;-99
1146847;2;19;2;2280;226;3983;-168;3344;3679;-363
1146857;2;19;2;2280;345;3938;-343;3677;3722;-704
1146867;2;19;2;2280;499;3931;-521;3906;3774;-1125
1146877;2;19;2;2280;612;3910;-739;3799;3726;-1595
1146887;2;19;2;2280;552;4034;-1016;3110;3532;-1912
1146897;2;19;2;2280;450;4138;-1166;1767;3297;-2011
1146907;2;19;2;2280;244;4265;-1241;37;3199;-1873
1146917;2;19;2;2280;128;4287;-1171;-1636;3245;-1706
1146927;2;19;2;2281;66;4318;-875;-2889;3315;-1422
1146937;2;19;2;2281;140;4334;-505;-3640;3150;-1060
1146947;2;19;2;2281;192;4237;-262;-3924;2754;-643
1146957;2;19;2;2281;260;4233;-109;-3958;2534;-394
1146967;2;19;2;2281;241;4200;88;-3696;2499;-298
1146977;2;19;2;2281;272;4200;272;-3029;2487;-284
1146987;2;19;2;2281;318;4138;232;-1924;2534;-356
1146997;2;19;2;2281;340;4081;11;-826;2618;-426
1147007;2;19;2;2281;333;4000;-230;-197;2670;-491
1147017;2;19;2;2281;310;4008;-399;-133;2656;-539
1147027;2;19;2;2281;233;4076;-387;-337;2611;-490
1147037;2;19;2;2281;95;4186;-245;-364;2555;-373
1147047;2;19;2;2281;-47;4378;-65;-42;2491;-251
1147057;2;19;2;2281;-107;4565;40;607;2504;-67
1147067;2;19;2;2281;-90;4580;9;1564;2629;24
1147077;2;19;2;2281;18;4471;-260;2726;2812;3
1147087;2;19;2;2281;222;4139;-788;3575;3027;-143
1147097;2;19;2;2281;513;3744;-1425;3412;3269;-539
1147107;2;19;2;2281;627;3546;-1990;1953;3544;-854
1147117;2;19;2;2281;483;3515;-2201;-684;3678;-1015
1147127;2;19;2;2281;170;3685;-1935;-3770;3571;-789
1147137;2;19;2;2281;-109;3769;-1459;-6167;3462;-462
1147147;2;19;2;2281;-409;3935;-541;-7791;3552;-158
1147157;2;19;2;2281;-459;4155;683;-7409;3558;99
1147167;2;19;2;2281;-251;4293;1823;-4222;3227;210
1147177;2;19;2;2281;-95;4181;1257;237;2965;70
1147187;2;19;2;2281;-197;3919;331;2481;3110;-50
1147197;2;19;2;2281;-285;3816;-41;3053;3179;-6
1147207;2;19;2;2281;-150;3881;-270;3635;3047;69
1147217;2;19;2;2281;62;3896;-568;4588;2925;-108
1147227;2;19;2;2281;248;3871;-962;5248;3028;-636
1147237;2;19;2;2281;277;3977;-1253;4878;3256;-1210
1147247;2;19;2;2281;144;4213;-1451;3140;3471;-1637
1147257;2;19;2;2281;7;4380;-1318;1148;3614;-1736
1147267;2;19;2;2281;-246;4504;-917;-893;3696;-1540
1147277;2;19;2;2281;-410;4567;-334;-2094;3595;-1215
1147287;2;19;2;2281;-460;4520;191;-2170;3405;-903
1147297;2;19;2;2281;-361;4382;450;-1405;3263;-833
1147307;2;19;2;2281;-256;4186;547;-43;3212;-1005
1147317;2;19;2;2281;-229;4085;445;1186;3076;-1203
1147327;2;19;2;2281;-200;3996;117;2284;2749;-1282
1147337;2;19;2;2281;-119;3880;-367;2728;2510;-1394
1147347;2;19;2;2281;-81;3799;-798;2392;2517;-1589
1147357;2;19;2;2281;-131;3782;-1002;1464;2665;-1793
1147367;2;19;2;2281;-186;3882;-979;155;2756;-1825
1147377;2;19;2;2281;-256;3965;-775;-1093;2847;-1762
1147387;2;19;2;2281;-317;4050;-408;-1933;2911;-1677
1147397;2;19;2;2281;-392;4114;-21;-2143;2903;-1510
1147407;2;19;2;2281;-379;4118;231;-1750;2852;-1327
1147417;2;19;2;2281;-340;4061;337;-878;2868;-1262
1147427;2;19;2;2282;-296;3972;272;72;2851;-1237
1147437;2;19;2;2282;-229;3892;59;714;2846;-1261
1147447;2;19;2;2282;-177;3854;-85;1077;2857;-1313
1147457;2;19;2;2282;-100;3860;-221;1274;2822;-1377
1147467;2;19;2;2282;-72;3959;-315;1333;2799;-1466
1147477;2;19;2;2282;-203;4094;-442;1269;2691;-1411
1147487;2;19;2;2282;-291;4153;-701;838;2702;-1295
1147497;2;19;2;2282;-441;4169;-875;-26;2838;-1141
1147507;2;19;2;2282;-575;4180;-968;-1062;2971;-859
1147517;2;19;2;2282;-630;4159;-856;-1956;3092;-536
1147527;2;19;2;2282;-677;4145;-721;-2634;3256;-274
1147537;2;19;2;2282;-638;4079;-463;-2909;3424;-88
1147547;2;19;2;2282;-582;3982;-308;-2781;3437;57
1147557;2;19;2;2282;-470;3820;-289;-2502;3317;151
1147567;2;19;2;2282;-408;3805;-250;-2384;3193;129
1147577;2;19;2;2282;-397;3994;34;-1972;2958;81
1147587;2;19;2;2282;-498;4335;302;-825;2643;-5
1147597;2;19;2;2282;-481;4683;224;806;2341;-18
1147607;2;19;2;2282;-515;4986;66;2600;2356;-79
1147617;2;19;2;2282;-471;5179;-103;4185;2209;-128
1147627;2;19;2;2282;-308;5078;-770;5533;1923;-3
1147637;2;19;2;2282;-60;4685;-1525;6476;1599;-14
1147647;2;19;2;2282;70;4559;-1873;6185;1157;-327
1147657;2;19;2;2282;70;4846;-2408;4469;812;-335
1147667;2;19;2;2282;-121;4764;-2816;1103;1439;-69
1147677;2;19;2;2282;-416;4535;-2513;-2760;2465;-122
1147687;2;19;2;2282;-488;4320;-1739;-5438;2996;-73
1147697;2;19;2;2282;-415;4216;-1133;-6698;2979;196
1147707;2;19;2;2282;-180;3910;-678;-6824;2742;338
1147717;2;19;2;2282;-3;3689;-406;-6256;2474;221
1147727;2;19;2;2282;73;3501;-384;-5384;2131;111
1147737;2;19;2;2282;109;3320;-620;-4595;1808;-60
1147747;2;19;2;2282;52;3254;-846;-4324;1621;-158
1147757;2;19;2;2282;50;3217;-791;-4516;1530;-145
1147767;2;19;2;2282;47;3196;-671;-4566;1485;-61
1147777;2;19;2;2282;37;3333;-257;-3887;1554;-270
1147787;2;19;2;2282;-54;3567;30;-2500;1496;-350
1147797;2;19;2;2282;-126;3676;41;-883;1439;-402
1147807;2;19;2;2282;-202;3751;-132;569;1362;-402
1147817;2;19;2;2282;-178;3782;-403;1441;1213;-238
1147827;2;19;2;2282;-52;3806;-624;1909;1112;-14
1147837;2;19;2;2282;70;3840;-729;2256;1040;82
1147847;2;19;2;2282;199;3927;-731;2749;896;141
1147857;2;19;2;2282;302;4081;-775;3179;669;22
1147867;2;19;2;2282;306;4216;-873;3405;456;52
1147877;2;19;2;2282;289;4324;-986;3043;268;-25
1147887;2;19;2;2282;149;4368;-1133;2365;200;35
1147897;2;19;2;2282;75;4382;-1235;1133;42;140
1147907;2;19;2;2282;-13;4269;-1250;-327;-86;363
1147917;2;19;2;2282;-26;4057;-1085;-1695;-172;526
1147927;2;19;2;2283;17;3904;-830;-2340;-312;573
1147937;2;19;2;2283;139;3816;-507;-2449;-496;524
1147947;2;19;2;2283;238;3806;-159;-2142;-788;422
1147957;2;19;2;2283;339;3777;34;-1381;-1071;242
1147967;2;19;2;2283;283;3839;71;-297;-1326;13
1147977;2;19;2;2283;186;3910;-74;679;-1532;-132
1147987;2;19;2;2283;50;3986;-326;1202;-1644;-161
1147997;2;19;2;2283;19;4014;-507;1342;-1749;-76
1148007;2;19;2;2283;66;4067;-521;1320;-1967;113
1148017;2;19;2;2283;132;4067;-622;1385;-2128;250
1148027;2;19;2;2283;177;4042;-681;1653;-2167;222
1148037;2;19;2;2283;175;4082;-763;1785;-2269;238
1148047;2;19;2;2283;233;4101;-831;1611;-2401;279
1148057;2;19;2;2283;250;4094;-782;1336;-2448;266
1148067;2;19;2;2283;228;4116;-739;1162;-2559;238
1148077;2;19;2;2283;224;4077;-743;1007;-2828;301
1148087;2;19;2;2283;247;4030;-767;788;-3016;297
1148097;2;19;2;2283;215;3984;-763;468;-3206;232
1148107;2;19;2;2283;221;3941;-813;216;-3272;112
1148117;2;19;2;2283;100;4013;-815;-107;-3480;46
1148127;2;19;2;2283;129;3968;-800;-503;-3797;120
1148137;2;19;2;2283;157;3953;-769;-714;-3906;95
1148147;2;19;2;2283;225;3961;-660;-740;-4129;39
1148157;2;19;2;2283;200;3948;-652;-699;-4468;106
1148167;2;19;2;2283;219;3872;-679;-694;-4749;139
1148177;2;19;2;2283;260;3853;-681;-736;-4962;139
1148187;2;19;2;2283;329;3835;-658;-915;-5214;122
1148197;2;19;2;2283;319;3909;-498;-989;-5557;162
1148207;2;19;2;2283;347;3998;-388;-690;-5905;223
1148217;2;19;2;2283;533;4031;-401;-203;-6048;152
1148227;2;19;2;2283;595;4018;-486;173;-6147;40
1148237;2;19;2;2283;474;4030;-603;300;-6401;87
1148247;2;19;2;2283;141;4177;-739;222;-6721;290
1148257;2;19;2;2283;-210;4438;-718;226;-6650;364
1148267;2;19;2;2283;-555;4890;-565;1086;-6211;350
1148277;2;19;2;2283;-514;5054;-631;2899;-5693;415
1148287;2;19;2;2283;-227;4623;-1440;4327;-4900;383
1148297;2;19;2;2283;90;4125;-2157;4627;-4061;77
1148307;2;19;2;2283;332;3985;-2739;3424;-3688;-190
1148317;2;19;2;2283;287;4142;-2926;943;-3553;-272
1148327;2;19;2;2283;46;4286;-2584;-2189;-3411;-149
1148337;2;19;2;2283;-447;4361;-1893;-4556;-3179;30
1148347;2;19;2;2283;-911;4465;-1150;-5400;-2861;176
1148357;2;19;2;2283;-1129;4294;-253;-4729;-2662;388
1148367;2;19;2;2283;-1078;4073;108;-2743;-2832;522
1148377;2;19;2;2283;-875;3669;-137;-944;-2957;555
1148387;2;19;2;2283;-651;3360;-255;136;-2994;347
1148397;2;19;2;2283;-592;3256;-598;706;-2909;563
1148407;2;19;2;2283;-623;3134;-432;898;-2900;363
1148417;2;19;2;2283;-724;3400;-355;1661;-2951;76
1148427;2;19;2;2284;-864;3672;-444;2432;-2994;-88
1148437;2;19;2;2284;-959;3909;-595;2816;-2942;-109
1148447;2;19;2;2284;-963;3998;-739;2903;-2805;-24
1148457;2;19;2;2284;-902;4091;-797;2988;-2618;-35
1148467;2;19;2;2284;-772;4148;-842;3149;-2505;31
1148477;2;19;2;2284;-598;4130;-886;3256;-2510;160
1148487;2;19;2;2284;-488;4093;-856;3413;-2629;175
1148497;2;19;2;2284;-462;4154;-820;3540;-2952;274
1148507;2;19;2;2284;-505;4155;-860;3520;-3108;423
1148517;2;19;2;2284;-604;4210;-873;3048;-3153;713
1148527;2;19;2;2284;-608;4254;-795;2374;-3198;1046
1148537;2;19;2;2284;-663;4202;-648;2144;-3150;1061
1148547;2;19;2;2284;-611;4058;-649;2329;-2779;838
1148557;2;19;2;2284;-661;4018;-794;2633;-2316;474
1148567;2;19;2;2284;-796;3910;-1021;2758;-2031;335
1148577;2;19;2;2284;-851;3866;-1280;2382;-1864;385
1148587;2;19;2;2284;-882;3868;-1431;1513;-1952;639
1148597;2;19;2;2284;-856;3893;-1429;563;-1942;846
1148607;2;19;2;2284;-822;3971;-1304;-400;-1837;918
1148617;2;19;2;2284;-757;4047;-1088;-1077;-1697;917
1148627;2;19;2;2284;-627;4160;-867;-1125;-1593;832
1148637;2;19;2;2284;-648;4307;-730;-239;-1524;732
1148647;2;19;2;2284;-517;4315;-828;965;-1415;504
1148657;2;19;2;2284;-250;4101;-1253;1599;-1248;293
1148667;2;19;2;2284;13;3776;-1781;1590;-1273;-148
1148677;2;19;2;2284;59;3681;-2167;762;-1479;-319
1148687;2;19;2;2284;-17;3727;-2149;-1428;-2169;-205
1148697;2;19;2;2284;-45;3774;-1702;-3265;-2497;-208
1148707;2;19;2;2284;-200;3904;-682;-4227;-2708;-502
1148717;2;19;2;2284;-481;4015;-181;-3502;-3046;-702
1148727;2;19;2;2284;-701;3857;-263;-2155;-2960;-877
1148737;2;19;2;2284;-824;3560;-345;-1230;-2446;-1133
1148747;2;19;2;2284;-869;3506;-670;-730;-1761;-1211
1148757;2;19;2;2284;-897;3388;-701;-733;-1285;-1239
1148767;2;19;2;2284;-815;3439;-572;-484;-1270;-1272
1148777;2;19;2;2284;-611;3449;-639;401;-1209;-1374
1148787;2;19;2;2284;-387;3429;-816;1248;-955;-1630
1148797;2;19;2;2284;-199;3406;-1055;1713;-669;-1981
1148807;2;19;2;2284;-200;3493;-1221;1854;-623;-2217
1148817;2;19;2;2284;-264;3509;-1353;1879;-813;-2333
1148827;2;19;2;2284;-366;3620;-1433;1830;-1065;-2370
1148837;2;19;2;2284;-504;3671;-1634;1572;-1227;-2262
1148847;2;19;2;2284;-564;3583;-1746;1256;-1160;-2309
1148857;2;19;2;2284;-564;3562;-1707;1439;-1035;-2487
1148867;2;19;2;2284;-378;3542;-1613;2435;-1064;-2694
1148877;2;19;2;2284;-263;3154;-1888;2937;-902;-2877
1148887;2;19;2;2284;-118;3087;-1815;2530;-828;-2960
1148897;2;19;2;2284;-54;3009;-1575;2372;-878;-3085
1148907;2;19;2;2284;23;2976;-1482;2375;-1003;-2893
1148917;2;19;2;2284;130;2852;-1409;2401;-1245;-2612
1148927;2;19;2;2285;219;2702;-1382;2638;-1343;-2357
1148937;2;19;2;2285;325;2578;-1361;3040;-1116;-2135
1148947;2;19;2;2285;261;2540;-1288;3571;-870;-2193
1148957;2;19;2;2285;260;2416;-1318;3826;-833;-1527
1148967;2;19;2;2285;215;2253;-1289;4284;-944;-851
1148977;2;19;2;2285;184;2024;-1404;5095;-1002;-361
1148987;2;19;2;2285;448;1756;-1423;5487;-868;-218
1148997;2;19;2;2285;605;1508;-1226;5116;-618;58
1149007;2;19;2;2285;726;1407;-911;4798;-424;187
1149017;2;19;2;2285;699;1430;-622;4909;-147;139
1149027;2;19;2;2285;563;1606;-299;5346;38;111
1149037;2;19;2;2285;190;1835;-72;6207;-113;547
1149047;2;19;2;2285;11;1725;-71;7064;-258;1201
1149057;2;19;2;2285;-29;1618;-343;7280;-59;1528
1149067;2;19;2;2285;57;1652;-596;6498;372;1962
1149077;2;19;2;2285;355;1519;-748;5518;990;2067
1149087;2;19;2;2285;411;1657;-790;5405;1845;1716
1149097;2;19;2;2285;225;2003;-953;5594;2490;1714
1149107;2;19;2;2285;28;2183;-894;5367;2580;1961
1149117;2;19;2;2285;-43;2207;-840;5133;2569;2154
1149127;2;19;2;2285;149;2390;-757;5106;2735;2274
1149137;2;19;2;2285;96;2538;-644;5204;2622;2540
1149147;2;19;2;2285;24;2491;-706;5326;2098;2973
1149157;2;19;2;2285;547;2209;-922;5546;1591;2659
1149167;2;19;2;2285;1584;1638;-2012;5405;849;480
1149177;2;19;2;2285;711;2466;-2951;3801;1243;-2041
1149187;2;19;2;2285;-924;4046;-2298;1183;1151;-1118
1149197;2;19;2;2285;-1063;4579;-2360;-1145;362;700
1149207;2;19;2;2285;-523;4334;-2402;-1504;1380;1980
1149217;2;19;2;2285;116;3668;-2001;185;3150;2321
1149227;2;19;2;2285;488;3116;-1928;2333;3711;2186
1149237;2;19;2;2285;267;2928;-1749;3983;2671;2147
1149247;2;19;2;2285;-62;2894;-1599;5006;1009;1949
1149257;2;19;2;2285;-187;3421;-1669;5198;-255;1519
1149267;2;19;2;2285;-619;4026;-2269;5404;-1061;1586
1149277;2;19;2;2285;-561;4026;-2896;5846;-1396;1930
1149287;2;19;2;2285;-695;4217;-3428;5157;-1357;2666
1149297;2;19;2;2285;-464;3882;-3301;3428;-1926;3783
1149307;2;19;2;2285;-152;3734;-2858;2227;-2535;4421
1149317;2;19;2;2285;388;3583;-2500;2373;-2932;4672
1149327;2;19;2;2285;892;3524;-2211;3407;-3173;4551
1149337;2;19;2;2285;1448;3662;-2438;4759;-3735;3950
1149347;2;19;2;2285;2034;4195;-3833;5242;-4279;3084
1149357;2;19;2;2285;3426;4715;-5952;2430;-4061;678
1149367;2;19;2;2285;3398;5538;-6720;-2022;-3122;-2098
1149377;2;19;2;2285;2186;5117;-5686;-7122;-3182;-3658
1149387;2;19;2;2285;-225;3435;-3274;-11078;-3048;-3073
1149397;2;19;2;2285;-1918;2194;-681;-11034;-3867;-2560
1149407;2;19;2;2285;-648;1836;-433;-5363;-4505;-3557
1149417;2;19;2;2285;169;1986;-2318;-1241;-5056;-4705
1149427;2;19;2;2286;982;2708;-3737;-370;-5513;-4381
1149437;2;19;2;2286;1332;3216;-3701;-1632;-5423;-4365
1149447;2;19;2;2286;938;3098;-2935;-1089;-5952;-5210
1149457;2;19;2;2286;-113;3231;-3092;721;-6260;-6593
1149467;2;19;2;2286;-862;3203;-4307;1185;-6151;-7004
1149477;2;19;2;2286;-454;2932;-5608;-308;-4743;-6884
1149487;2;19;2;2286;9;3097;-5682;-1346;-3119;-6940
1149497;2;19;2;2286;224;2783;-5933;-1586;-1257;-6507
1149507;2;19;2;2286;-64;2027;-5636;-1168;812;-6801
1149517;2;19;2;2286;-620;2185;-5230;268;1448;-7369
1149527;2;19;2;2286;-1241;2580;-4623;2043;227;-6952
1149537;2;19;2;2286;-1693;2385;-3970;4033;-1484;-6569
1149547;2;19;2;2286;-2346;2734;-3194;5908;-3647;-6545
1149557;2;19;2;2286;-2624;3231;-3157;6422;-5927;-5815
1149567;2;19;2;2286;-2448;3306;-3660;5447;-6889;-4994
1149577;2;19;2;2286;-2293;3270;-3656;3017;-7304;-3684
1149587;2;19;2;2286;-1639;3215;-3520;1105;-8593;-1928
1149597;2;19;2;2286;-919;2989;-2998;694;-9926;-1419
1149607;2;19;2;2286;-266;3114;-2067;851;-11493;-1792
1149617;2;19;2;2286;366;3058;-1349;1091;-13163;-2053
1149627;2;19;2;2286;-320;3867;-1499;2021;-14133;-2688
1149637;2;19;2;2286;-2753;4702;-2417;1453;-14509;-1818
1149647;2;19;2;2286;-4625;4802;-3220;1084;-13925;-751
1149657;2;19;2;2286;-6785;5638;-3266;1548;-13527;1078
1149667;2;19;2;2286;-6131;5182;-4935;2369;-11409;1302
1149677;2;19;2;2286;-4843;5516;-6507;3814;-6931;-4408
1149687;2;19;2;2286;-5724;6996;-6314;3873;-4116;-11885
1149697;2;19;2;2286;-7963;7655;-6294;-862;-5173;-14380
1149707;2;19;2;2286;-8538;6043;-7458;-12830;-6877;-10521
1149717;2;19;2;2286;-6773;1014;-7452;-32765;-5090;-7369
1149727;2;19;2;2286;-3834;-2533;2664;-32768;-831;-7371
1149737;2;19;2;2286;-1283;-1899;14445;-23117;-3871;-8155
1149747;2;19;2;2286;-1427;-3765;1206;3035;-6188;-9992
1149757;2;19;2;2286;-945;-3495;-182;-2045;-7805;-8012
1149767;2;19;2;2286;-863;-1817;2200;3088;-9305;-6920
1149777;2;19;2;2286;-815;29;1441;10362;-9373;-7227
1149787;2;19;2;2286;-1427;1386;-591;10446;-8850;-7993
1149797;2;19;2;2286;-3139;2034;-2641;4676;-7263;-8356
1149807;2;19;2;2286;-4364;1930;-3179;-4199;-5634;-7847
1149817;2;19;2;2286;-4440;788;-1821;-12752;-4303;-6555
1149827;2;19;2;2286;-3664;-294;1311;-15001;-4348;-5680
1149837;2;19;2;2286;-2711;-1022;2090;-8470;-4883;-5938
1149847;2;19;2;2286;-2269;-1284;834;-3697;-4866;-5887
1149857;2;19;2;2286;-1723;-1443;769;-2177;-4094;-7277
1149867;2;19;2;2286;-3037;-321;1304;-1106;-3790;-9241
1149877;2;19;2;2286;-4389;-99;809;-2453;-3727;-10373
1149887;2;19;2;2286;-5560;199;520;-4638;-2785;-12360
1149897;2;19;2;2286;-6424;1061;664;-4821;-2663;-12863
1149907;2;19;2;2286;-6639;1265;438;-3861;-3565;-11601
1149917;2;19;2;2286;-6253;1383;588;-2771;-5826;-8740
1149927;2;19;2;2287;-5140;564;616;-2333;-8060;-5916
1149937;2;19;2;2287;-4887;-93;841;-2274;-8445;-4536
1149947;2;19;2;2287;-5239;46;1593;-1613;-8543;-3965
1149957;2;19;2;2287;-5427;222;1380;-1659;-8323;-3939
1149967;2;19;2;2287;-5536;667;1544;-2240;-6957;-4641
1149977;2;19;2;2287;-5468;1020;1684;-1131;-5577;-5549
1149987;2;19;2;2287;-4434;879;1099;1941;-4139;-6950
1149997;2;19;2;2287;-4018;1115;441;4710;-3250;-7704
1150007;2;19;2;2287;-3468;940;-668;4882;-2588;-7651
1150017;2;19;2;2287;-2475;202;-1586;3323;-2062;-7774
1150027;2;19;2;2287;-2573;-285;-2176;563;-2596;-8125
1150037;2;19;2;2287;-2956;-756;-2805;-3306;-3453;-7871
1150047;2;19;2;2287;-4283;-1404;-2842;-7579;-4023;-8332
1150057;2;19;2;2287;-6104;-1600;-2581;-10876;-3763;-9204
1150067;2;19;2;2287;-7606;-1268;-2248;-13632;-2617;-9326
1150077;2;19;2;2287;-8651;-1692;-1033;-17207;-1523;-7974
1150087;2;19;2;2287;-8167;-1991;876;-20778;-989;-5425
1150097;2;19;2;2287;-5993;-2060;5147;-19563;-1735;-2798
1150107;2;19;2;2287;-3837;-2433;8824;-6563;-4156;-1913
1150117;2;19;2;2287;-2768;-3778;4771;6024;-5721;-3403
1150127;2;19;2;2287;-2933;-3795;2553;4997;-5697;-3073
1150137;2;19;2;2287;-2607;-3137;2145;4509;-4529;-179
1150147;2;19;2;2287;-2525;-2180;1642;5503;-4415;881
1150157;2;19;2;2287;-2867;-1678;1819;5889;-5678;2235
1150167;2;19;2;2287;-3270;-447;1857;6376;-7659;4828
1150177;2;19;2;2287;-2727;192;1559;6028;-8970;7648
1150187;2;19;2;2287;-2003;-21;642;3630;-8281;7646
1150197;2;19;2;2287;-1772;123;766;59;-6439;6667
1150207;2;19;2;2287;-1527;193;1401;-3001;-5383;5433
1150217;2;19;2;2287;-1518;161;2019;-4665;-4938;4452
1150227;2;19;2;2287;-1840;-92;2404;-4799;-3704;3309
1150237;2;19;2;2287;-2222;-620;3053;-1883;-1716;1865
1150247;2;19;2;2287;-2820;-1214;2891;1221;122;260
1150257;2;19;2;2287;-3893;-1075;2336;1129;876;-596
1150267;2;19;2;2287;-4431;-1142;2266;-257;535;-119
1150277;2;19;2;2287;-4710;-1192;2651;-630;-296;498
1150287;2;19;2;2287;-4573;-1049;2286;-1015;-1203;1376
1150297;2;19;2;2287;-4460;-1189;2059;-871;-1362;1762
1150307;2;19;2;2287;-4289;-1302;2228;-494;-1339;1946
1150317;2;19;2;2287;-3884;-1075;2343;43;-1735;1879
1150327;2;19;2;2287;-3514;-937;2295;-26;-1854;1766
1150337;2;19;2;2287;-3460;-740;2277;-345;-1485;1667
1150347;2;19;2;2287;-3494;-427;2269;-682;-1101;1685
1150357;2;19;2;2287;-3454;-93;2138;-699;-518;1794
1150367;2;19;2;2287;-3165;-91;2217;-503;46;1391
1150377;2;19;2;2287;-3333;278;2499;763;398;801
1150387;2;19;2;2287;-3378;218;2287;2641;274;626
1150397;2;19;2;2287;-3542;41;1827;3633;17;505
1150407;2;19;2;2287;-3714;153;1441;3747;-44;1066
1150417;2;19;2;2287;-3903;-17;1232;2896;-32;1347
1150427;2;19;2;2288;-3803;103;1099;1059;261;1508
1150437;2;19;2;2288;-3607;137;1580;108;803;1283
1150447;2;19;2;2288;-3551;-18;1896;525;1017;997
1150457;2;19;2;2288;-3483;-302;1845;2496;1122;533
1150467;2;19;2;2288;-3503;-573;1545;5207;1446;-331
1150477;2;19;2;2288;-3638;-720;872;6678;1892;-1263
1150487;2;19;2;2288;-3918;-293;529;6549;2161;-1615
1150497;2;19;2;2288;-4251;138;362;5084;1712;-1261
1150507;2;19;2;2288;-4539;360;139;2779;1307;-214
1150517;2;19;2;2288;-4628;843;129;242;1287;1253
1150527;2;19;2;2288;-4470;1145;425;-1835;1486;3037
1150537;2;19;2;2288;-4046;1010;743;-2852;1771;4235
1150547;2;19;2;2288;-3376;828;1352;-2807;1851;4538
1150557;2;19;2;2288;-2871;548;1701;-2799;1604;4097
1150567;2;19;2;2288;-3031;309;2060;-4646;1500;3103
1150577;2;19;2;2288;-3440;430;2788;-7944;1436;2395
1150587;2;19;2;2288;-3505;-58;3053;-9261;2220;1378
1150597;2;19;2;2288;-3789;-236;2996;-6563;3661;-60
1150607;2;19;2;2288;-4040;-439;2379;-1964;4246;-401
1150617;2;19;2;2288;-4031;-860;1186;1533;3383;37
1150627;2;19;2;2288;-3916;-1074;236;2232;1554;1323
1150637;2;19;2;2288;-3844;-1032;-205;948;351;3654
1150647;2;19;2;2288;-3672;-1014;498;-483;611;5226
1150657;2;19;2;2288;-3866;-520;2069;-1096;1327;5411
1150667;2;19;2;2288;-3965;-207;3304;595;2070;4964
1150677;2;19;2;2288;-4346;-101;3538;4747;2927;3955
1150687;2;19;2;2288;-5096;81;2818;9276;3352;3388
1150697;2;19;2;2288;-5164;-7;1505;12716;3635;3808
1150707;2;19;2;2288;-4677;67;298;13914;4082;3887
1150717;2;19;2;2288;-4200;237;-352;12665;3600;4606
1150727;2;19;2;2288;-4049;443;-864;9510;2845;4966
1150737;2;19;2;2288;-4190;1065;-632;6298;2309;5289
1150747;2;19;2;2288;-4381;1527;-11;3839;1808;5358
1150757;2;19;2;2288;-4486;1722;210;1675;1533;5199
1150767;2;19;2;2288;-4389;1877;627;95;1511;4695
1150777;2;19;2;2288;-4016;1636;868;114;1744;3668
1150787;2;19;2;2288;-4022;1699;566;-68;1663;2768
1150797;2;19;2;2288;-4248;1603;128;-705;1336;3042
1150807;2;19;2;2288;-4465;1209;11;-1804;625;3820
1150817;2;19;2;2288;-4456;1340;126;-2710;-514;4808
1150827;2;19;2;2288;-4300;1315;522;-3140;-1491;5941
1150837;2;19;2;2288;-3833;1228;1080;-3323;-2165;6671
1150847;2;19;2;2288;-3089;1052;1739;-2594;-2242;6578
1150857;2;19;2;2288;-2714;1143;2409;-628;-2343;5923
1150867;2;19;2;2288;-2570;1187;2641;2012;-2492;5150
1150877;2;19;2;2288;-2526;1321;2408;4642;-2398;4003
1150887;2;19;2;2288;-2889;1663;1928;6204;-2397;3279
1150897;2;19;2;2288;-3298;1743;1260;6453;-2186;3013
1150907;2;19;2;2288;-3747;1720;739;6399;-1550;2889
1150917;2;19;2;2288;-3919;1911;558;6165;-1059;3318
1150927;2;19;2;2289;-3637;1927;329;5767;-1166;4378
1150937;2;19;2;2289;-3215;1772;174;5222;-1522;5189
1150947;2;19;2;2289;-2947;1716;303;4421;-1867;5682
1150957;2;19;2;2289;-2640;1832;445;3488;-2163;6012
1150967;2;19;2;2289;-2278;1909;507;2957;-1978;6019
1150977;2;19;2;2289;-2250;2004;807;2978;-1747;5500
1150987;2;19;2;2289;-2461;2254;909;3644;-1614;5035
1150997;2;19;2;2289;-2638;2473;709;4395;-1394;4692
1151007;2;19;2;2289;-2701;2535;282;4652;-802;4098
1151017;2;19;2;2289;-2811;2647;58;4467;-164;3806
1151027;2;19;2;2289;-2886;2621;-20;4237;168;4008
1151037;2;19;2;2289;-2926;2663;-133;3782;13;4483
1151047;2;19;2;2289;-2792;2803;-80;3015;-248;5181
1151057;2;19;2;2289;-2614;2819;0;2121;-289;5910
1151067;2;19;2;2289;-2355;2767;288;1477;-203;6075
1151077;2;19;2;2289;-2215;2610;509;1456;99;5569
1151087;2;19;2;2289;-2255;2526;579;1997;903;4515
1151097;2;19;2;2289;-2303;2565;486;2701;1967;3262
1151107;2;19;2;2289;-2382;2692;313;3037;2932;2413
1151117;2;19;2;2289;-2562;2678;387;3241;3550;2056
1151127;2;19;2;2289;-2698;2686;351;3551;3544;2043
1151137;2;19;2;2289;-2665;2755;218;4246;2911;1887
1151147;2;19;2;2289;-2690;2819;-79;4981;2245;2026
1151157;2;19;2;2289;-2708;2852;-414;5322;1635;2222
1151167;2;19;2;2289;-2808;3029;-631;5104;1293;2431
1151177;2;19;2;2289;-2841;3259;-744;4212;1192;2730
1151187;2;19;2;2289;-2827;3346;-772;3101;1365;2783
1151197;2;19;2;2289;-2858;3491;-644;2206;1882;2807
1151207;2;19;2;2289;-2889;3497;-409;1619;2234;2991
1151217;2;19;2;2289;-2764;3242;-161;1521;1982;3008
1151227;2;19;2;2289;-2702;3086;-146;1617;1465;3110
1151237;2;19;2;2289;-2698;2977;-251;1405;1038;3431
1151247;2;19;2;2289;-2628;2988;-283;791;768;3709
1151257;2;19;2;2289;-2508;2997;-189;64;567;3842
1151267;2;19;2;2289;-2385;3016;-21;-375;418;3856
1151277;2;19;2;2289;-2302;3053;70;-361;285;3728
1151287;2;19;2;2289;-2196;3044;80;-41;370;3434
1151297;2;19;2;2289;-2115;3165;189;568;674;3032
1151307;2;19;2;2289;-2012;3245;177;994;835;2692
1151317;2;19;2;2289;-1874;3180;79;1228;955;2384
1151327;2;19;2;2289;-1829;3022;8;1390;1027;1936
1151337;2;19;2;2289;-1952;3003;-83;1427;1023;1666
1151347;2;19;2;2289;-2028;3070;-327;1178;1009;1523
1151357;2;19;2;2289;-2157;3254;-354;646;826;1582
1151367;2;19;2;2289;-2141;3325;-354;-216;511;1923
1151377;2;19;2;2289;-2041;3412;-255;-1012;365;2149
1151387;2;19;2;2289;-2017;3574;-76;-1261;338;2199
1151397;2;19;2;2289;-2035;3650;131;-942;422;2157
1151407;2;19;2;2289;-1936;3633;236;-223;633;1979
1151417;2;19;2;2289;-1886;3613;241;594;1004;1529
1151427;2;19;2;2290;-1882;3623;240;1330;1374;1143
1151437;2;19;2;2290;-1957;3582;181;2176;1735;796
1151447;2;19;2;2290;-2036;3633;36;3039;1911;522
1151457;2;19;2;2290;-2010;3578;-292;4049;1975;560
1151467;2;19;2;2290;-2058;3615;-469;4723;2083;605
1151477;2;19;2;2290;-2121;3741;-632;4861;1865;912
1151487;2;19;2;2290;-2047;3652;-888;4676;1702;1329
1151497;2;19;2;2290;-1963;3467;-1108;4088;1697;1590
1151507;2;19;2;2290;-1948;3308;-1143;3190;1796;1676
1151517;2;19;2;2290;-1819;3128;-1125;2426;2179;1421
1151527;2;19;2;2290;-1616;3136;-1043;1840;2766;947
1151537;2;19;2;2290;-1488;3234;-921;1463;3280;331
1151547;2;19;2;2290;-1467;3456;-818;1281;3672;-314
1151557;2;19;2;2290;-1558;3667;-795;1170;4036;-657
1151567;2;19;2;2290;-1765;3614;-692;1512;4237;-663
1151577;2;19;2;2290;-2048;3367;-626;2410;4276;-416
1151587;2;19;2;2290;-2290;3308;-696;3418;4029;60
1151597;2;19;2;2290;-2376;3127;-878;3614;3826;730
1151607;2;19;2;2290;-2432;3054;-869;2624;3752;1389
1151617;2;19;2;2290;-2323;3005;-565;1361;3820;1858
1151627;2;19;2;2290;-2082;3047;-139;1040;3979;1827
1151637;2;19;2;2290;-1842;3137;43;1879;4013;1404
1151647;2;19;2;2290;-1585;3304;-182;3017;4026;764
1151657;2;19;2;2290;-1473;3505;-531;4070;4181;66
1151667;2;19;2;2290;-1426;3593;-898;4969;4521;-513
1151677;2;19;2;2290;-1326;3614;-1212;5532;4862;-1020
1151687;2;19;2;2290;-1375;3696;-1409;5758;5010;-1161
1151697;2;19;2;2290;-1395;3626;-1407;5554;4658;-924
1151707;2;19;2;2290;-1501;3528;-1387;5284;3908;-683
1151717;2;19;2;2290;-1699;3532;-1272;4797;3139;-196
1151727;2;19;2;2290;-1805;3770;-1280;4026;2156;487
1151737;2;19;2;2290;-1768;3867;-1200;3157;1384;1229
1151747;2;19;2;2290;-1923;4087;-1047;2552;942;1510
1151757;2;19;2;2290;-1951;4101;-861;2359;658;1655
1151767;2;19;2;2290;-2120;3940;-758;2301;597;1325
1151777;2;19;2;2290;-2141;3413;-719;2634;1129;531
1151787;2;19;2;2290;-2281;2884;-1000;4018;2563;-850
1151797;2;19;2;2290;-2306;2664;-1265;6425;4516;-2387
1151807;2;19;2;2290;-1837;2631;-1576;9306;6378;-3388
1151817;2;19;2;2290;-1917;2986;-1876;12093;6403;-3136
1151827;2;19;2;2290;-1864;2836;-2622;13394;4684;-2185
1151837;2;19;2;2290;-1955;2631;-3586;12390;2873;-1026
1151847;2;19;2;2290;-2192;2259;-4064;9695;1506;226
1151857;2;19;2;2290;-2369;2029;-4458;6632;1092;1427
1151867;2;19;2;2290;-2398;1825;-4393;3736;1238;1880
1151877;2;19;2;2290;-2495;1657;-4067;1718;1622;1578
1151887;2;19;2;2290;-2481;1702;-3493;712;1885;898
1151897;2;19;2;2290;-2475;1892;-2968;324;1959;560
1151907;2;19;2;2290;-2401;2173;-2775;239;1755;551
1151917;2;19;2;2290;-2607;2526;-2820;39;1523;783
1151927;2;19;2;2291;-2836;2685;-3103;-174;1487;1081
1151937;2;19;2;2291;-3233;2996;-3529;-357;2105;1219
1151947;2;19;2;2291;-3527;3275;-3796;-350;2966;1437
1151957;2;19;2;2291;-3385;3220;-3929;-408;3370;1499
1151967;2;19;2;2291;-3130;3084;-3830;-908;3472;1606
1151977;2;19;2;2291;-2496;2615;-3321;-1297;3197;1721
1151987;2;19;2;2291;-1886;2233;-3272;-1573;2926;1592
1151997;2;19;2;2291;-1482;1914;-3050;-2097;2795;1130
1152007;2;19;2;2291;-1211;1743;-2772;-2404;2597;496
1152017;2;19;2;2291;-1165;1970;-2803;-2890;2631;-136
1152027;2;19;2;2291;-1292;2151;-2572;-3344;2376;-527
1152037;2;19;2;2291;-1554;2322;-2481;-2811;1535;-729
1152047;2;19;2;2291;-1605;2387;-2433;-1406;406;-669
1152057;2;19;2;2291;-1659;2781;-2458;438;-310;-220
1152067;2;19;2;2291;-1221;2532;-2965;1461;-507;-156
1152077;2;19;2;2291;-1078;2413;-2985;1467;430;-758
1152087;2;19;2;2291;-813;2301;-2663;1091;1287;-1326
1152097;2;19;2;2291;-644;2159;-2359;1102;1564;-2081
1152107;2;19;2;2291;-563;2092;-2277;1719;1575;-2452
1152117;2;19;2;2291;-466;2214;-2450;2450;1383;-2237
1152127;2;19;2;2291;-479;2289;-2808;2703;1004;-1824
1152137;2;19;2;2291;-619;2243;-3219;2389;748;-1447
1152147;2;19;2;2291;-708;2332;-3231;1764;763;-1032
1152157;2;19;2;2291;-670;2515;-3129;1133;780;-646
1152167;2;19;2;2291;-573;2569;-2904;747;631;-498
1152177;2;19;2;2291;-484;2468;-2624;768;458;-635
1152187;2;19;2;2291;-365;2631;-2166;1099;-7;-898
1152197;2;19;2;2291;-322;2826;-2171;1120;-585;-909
1152207;2;19;2;2291;-258;3003;-2010;810;-1164;-1072
1152217;2;19;2;2291;-348;3352;-2149;896;-1731;-1016
1152227;2;19;2;2291;-301;3423;-2126;1161;-2228;-591
1152237;2;19;2;2291;-553;3216;-2180;1436;-2530;-315
1152247;2;19;2;2291;-704;2885;-2587;1935;-2583;-250
1152257;2;19;2;2291;-877;2752;-3026;2361;-2182;-473
1152267;2;19;2;2291;-1012;2733;-3497;2331;-1697;-416
1152277;2;19;2;2291;-1116;2533;-3722;2028;-1310;-355
1152287;2;19;2;2291;-1261;2633;-3935;1809;-785;-167
1152297;2;19;2;2291;-1280;2766;-4056;1824;-156;361
1152307;2;19;2;2291;-1368;2657;-4023;1928;132;878
1152317;2;19;2;2291;-1366;2420;-4220;2232;447;1160
1152327;2;19;2;2291;-1229;2442;-4603;2334;737;1262
1152337;2;19;2;2291;-1119;2433;-4985;1981;1144;1273
1152347;2;19;2;2291;-1064;2303;-5149;1056;1402;1298
1152357;2;19;2;2291;-1078;2319;-5147;-171;1474;1248
1152367;2;19;2;2291;-1019;2679;-4850;-1231;1210;1275
1152377;2;19;2;2291;-963;3098;-4597;-1459;768;1322
1152387;2;19;2;2291;-1085;3418;-4634;-1510;246;1605
1152397;2;19;2;2291;-1227;3294;-4647;-1616;-88;1839
1152407;2;19;2;2291;-1527;3330;-4488;-1361;-400;1930
1152417;2;19;2;2291;-1668;3419;-4465;-1001;-950;2190
1152427;2;19;2;2292;-1737;3503;-4505;-699;-1331;2511
1152437;2;19;2;2292;-1811;3789;-4357;-651;-1710;2860
1152447;2;19;2;2292;-1797;3913;-4238;-685;-2023;3403
1152457;2;19;2;2292;-1634;3652;-4111;-256;-1938;3685
1152467;2;19;2;2292;-1703;3562;-3818;754;-1729;3843
1152477;2;19;2;2292;-1613;3416;-3717;1847;-1677;4266
1152487;2;19;2;2292;-1447;3148;-3669;2682;-1538;4494
1152497;2;19;2;2292;-1301;2831;-3605;3381;-1338;4496
1152507;2;19;2;2292;-1103;2689;-3442;3994;-1111;4391
1152517;2;19;2;2292;-977;2578;-3304;4569;-1262;4760
1152527;2;19;2;2292;-1076;2428;-3309;4941;-1992;5493
1152537;2;19;2;2292;-1308;2140;-3408;4603;-3055;6520
1152547;2;19;2;2292;-1312;1857;-3616;3848;-3804;6821
1152557;2;19;2;2292;-1053;1790;-3840;3386;-3672;6512
1152567;2;19;2;2292;-851;1734;-3746;3448;-2977;5787
1152577;2;19;2;2292;-680;1636;-3684;3866;-2566;5192
1152587;2;19;2;2292;-546;1667;-3845;4202;-2263;4683
1152597;2;19;2;2292;-444;1455;-3946;3884;-2193;4412
1152607;2;19;2;2292;-434;1517;-3894;3189;-2525;4246
1152617;2;19;2;2292;-530;1778;-3790;2428;-3366;4494
1152627;2;19;2;2292;-687;2071;-3891;1388;-4680;5315
1152637;2;19;2;2292;-749;1793;-4103;393;-5438;5972
1152647;2;19;2;2292;-924;1670;-4098;-367;-5533;5904
1152657;2;19;2;2292;-1083;1708;-3996;-1140;-5394;5492
1152667;2;19;2;2292;-1111;1895;-3755;-1758;-5059;4881
1152677;2;19;2;2292;-1027;2314;-3400;-1879;-4660;4427
1152687;2;19;2;2292;-1015;2599;-3052;-1417;-4252;4295
1152697;2;19;2;2292;-1205;2670;-2640;-671;-4002;4624
1152707;2;19;2;2292;-1300;2636;-2281;-33;-4316;5153
1152717;2;19;2;2292;-1195;2637;-2176;599;-4925;5861
1152727;2;19;2;2292;-1063;2590;-2231;877;-5642;6540
1152737;2;19;2;2292;-979;2486;-2258;579;-6335;7238
1152747;2;19;2;2292;-963;2351;-2172;-84;-7273;7758
1152757;2;19;2;2292;-933;2233;-2246;-666;-8019;8074
1152767;2;19;2;2292;-904;2172;-2229;-960;-8528;7982
1152777;2;19;2;2292;-795;2128;-2288;-911;-8788;7589
1152787;2;19;2;2292;-716;2175;-2523;-627;-8451;7252
1152797;2;19;2;2292;-708;2074;-2470;-250;-7575;7041
1152807;2;19;2;2292;-674;1972;-2276;170;-7211;6801
1152817;2;19;2;2292;-609;2058;-2388;590;-7190;6689
1152827;2;19;2;2292;-510;2191;-2513;571;-7305;6693
1152837;2;19;2;2292;-348;2202;-2567;31;-7333;6839
1152847;2;19;2;2292;-228;2194;-2501;-608;-7285;6804
1152857;2;19;2;2292;-217;2312;-2346;-1014;-7372;6557
1152867;2;19;2;2292;-239;2427;-2379;-1056;-7616;6248
1152877;2;19;2;2292;-351;2347;-2488;-814;-7609;5815
1152887;2;19;2;2292;-474;2346;-2615;-497;-7331;5237
1152897;2;19;2;2292;-590;2372;-2736;-283;-6934;4768
1152907;2;19;2;2292;-692;2326;-2822;-247;-6482;4499
1152917;2;19;2;2292;-789;2348;-2778;-381;-6081;4326
1152927;2;19;2;2293;-764;2387;-2708;-740;-5738;4369
1152937;2;19;2;2293;-710;2421;-2604;-1036;-5411;4356
1152947;2;19;2;2293;-681;2430;-2408;-1124;-5129;4285
1152957;2;19;2;2293;-661;2369;-2261;-882;-4968;4221
1152967;2;19;2;2293;-630;2303;-2337;-461;-4914;4169
1152977;2;19;2;2293;-632;2053;-2351;-113;-4835;3939
1152987;2;19;2;2293;-640;1929;-2426;-231;-4801;3539
1152997;2;19;2;2293;-696;1956;-2492;-907;-4649;3073
1153007;2;19;2;2293;-849;2076;-2265;-1888;-4602;2828
1153017;2;19;2;2293;-1048;2388;-1925;-3005;-4940;3054
1153027;2;19;2;2293;-1040;2612;-1643;-3816;-5357;3516
1153037;2;19;2;2293;-926;2666;-1328;-3760;-5563;3879
1153047;2;19;2;2293;-830;2582;-1050;-2815;-5492;3796
1153057;2;19;2;2293;-692;2538;-947;-1336;-5218;3349
1153067;2;19;2;2293;-689;2471;-917;216;-4901;2800
1153077;2;19;2;2293;-760;2433;-1082;1561;-4689;2307
1153087;2;19;2;2293;-834;2425;-1332;2540;-4605;2034
1153097;2;19;2;2293;-967;2439;-1575;2985;-4603;2075
1153107;2;19;2;2293;-1057;2614;-1668;2862;-4835;2327
1153117;2;19;2;2293;-1192;2675;-1687;2627;-5234;2748
1153127;2;19;2;2293;-1282;2747;-1629;2469;-5665;3277
1153137;2;19;2;2293;-1294;2877;-1609;2196;-5890;3669
1153147;2;19;2;2293;-1269;3091;-1516;1926;-5924;3961
1153157;2;19;2;2293;-1239;3126;-1503;1642;-5838;3871
1153167;2;19;2;2293;-1186;3270;-1526;1708;-5409;3574
1153177;2;19;2;2293;-1246;3525;-1587;2053;-4882;3179
1153187;2;19;2;2293;-1240;3674;-1718;2405;-4466;2940
1153197;2;19;2;2293;-1235;3712;-1750;2900;-4294;2927
1153207;2;19;2;2293;-1196;3603;-1826;3585;-4410;3067
1153217;2;19;2;2293;-1103;3560;-2079;4009;-4655;3208
1153227;2;19;2;2293;-1035;3465;-2310;3919;-4836;3315
1153237;2;19;2;2293;-1068;3361;-2407;3486;-4837;3260
1153247;2;19;2;2293;-1040;3328;-2466;2866;-4839;3050
1153257;2;19;2;2293;-1085;3392;-2522;2178;-4798;2760
1153267;2;19;2;2293;-1087;3537;-2511;1599;-4798;2443
1153277;2;19;2;2293;-1056;3636;-2618;934;-4737;2262
1153287;2;19;2;2293;-950;3631;-2585;522;-4422;2047
1153297;2;19;2;2293;-808;3673;-2522;383;-4177;1645
1153307;2;19;2;2293;-620;3648;-2532;168;-4029;1235
1153317;2;19;2;2293;-479;3542;-2532;-66;-3896;727
1153327;2;19;2;2293;-604;3333;-2664;-23;-3809;67
1153337;2;19;2;2293;-796;2992;-2899;59;-3648;-756
1153347;2;19;2;2293;-1196;2913;-3354;-489;-3188;-1430
1153357;2;19;2;2293;-1522;2995;-3504;-1481;-2693;-1681
1153367;2;19;2;2293;-1781;3136;-3476;-2361;-2335;-1341
1153377;2;19;2;2293;-1884;3270;-3380;-2844;-1960;-839
1153387;2;19;2;2293;-1860;3277;-3153;-2564;-1563;-371
1153397;2;19;2;2293;-1736;3656;-3240;-1394;-705;127
1153407;2;19;2;2293;-1503;3454;-3165;303;269;453
1153417;2;19;2;2293;-1255;2707;-2954;2299;1233;55
