timestamp;subject_id;activity;label;seq;ax;ay;az;gx;gy;gz
1235927;2;20;2;2459;1121;4124;190;-2791;-2416;-101
1235937;2;20;2;2459;1199;4057;290;-2536;-2645;-18
1235947;2;20;2;2459;1191;4081;347;-2237;-2928;-54
1235957;2;20;2;2459;1051;4216;388;-1992;-3635;207
1235967;2;20;2;2459;1141;4083;201;-1627;-3873;276
1235977;2;20;2;2459;1053;4066;57;-1316;-4179;321
1235987;2;20;2;2459;1027;4039;-186;-1208;-4324;353
1235997;2;20;2;2459;1013;3971;-314;-1321;-4368;337
1236007;2;20;2;2459;1115;3970;-439;-1657;-4287;168
1236017;2;20;2;2459;1187;4006;-468;-2130;-4108;33
1236027;2;20;2;2459;1205;4056;-239;-2617;-4139;-208
1236037;2;20;2;2459;1101;4039;-239;-2986;-4268;-287
1236047;2;20;2;2459;1125;4081;-68;-3165;-4353;-465
1236057;2;20;2;2459;1112;4106;60;-3525;-4319;-525
1236067;2;20;2;2459;1019;4111;199;-3671;-4688;-590
1236077;2;20;2;2459;1036;4110;341;-3576;-5005;-547
1236087;2;20;2;2459;1070;4089;520;-3416;-5290;-509
1236097;2;20;2;2459;1170;4052;620;-3147;-5618;-576
1236107;2;20;2;2459;1214;3984;511;-2620;-6147;-543
1236117;2;20;2;2459;1263;4011;292;-2426;-6202;-665
1236127;2;20;2;2459;1236;3888;73;-2306;-6162;-668
1236137;2;20;2;2459;1377;3869;95;-2316;-5960;-1020
1236147;2;20;2;2459;1363;3955;41;-2408;-5835;-1173
1236157;2;20;2;2459;1341;3899;54;-2718;-5712;-1353
1236167;2;20;2;2459;1262;3907;173;-3129;-5725;-1420
1236177;2;20;2;2459;1179;3943;375;-3187;-5640;-1439
1236187;2;20;2;2459;1136;4011;639;-2845;-5811;-1410
1236197;2;20;2;2459;1159;3993;732;-2221;-6131;-1250
1236207;2;20;2;2459;1110;3902;481;-1429;-6490;-1200
1236217;2;20;2;2459;1182;4004;285;-942;-6674;-1222
1236227;2;20;2;2459;1186;3836;76;-843;-6893;-1076
1236237;2;20;2;2459;1192;3797;-200;-1146;-7091;-1228
1236247;2;20;2;2459;1182;3952;-130;-1532;-7150;-1260
1236257;2;20;2;2459;1061;3889;-106;-1913;-7133;-1229
1236267;2;20;2;2459;1145;3907;-14;-1982;-7079;-1297
1236277;2;20;2;2459;1076;3834;138;-1900;-7123;-1222
1236287;2;20;2;2459;1030;3894;161;-1797;-7368;-1167
1236297;2;20;2;2459;1033;3827;213;-1758;-7629;-1058
1236307;2;20;2;2459;1082;3819;125;-1691;-7763;-1029
1236317;2;20;2;2459;1117;3825;69;-1522;-7713;-997
1236327;2;20;2;2459;1170;3782;21;-1435;-7691;-999
1236337;2;20;2;2459;1172;3809;-30;-1454;-7700;-1008
1236347;2;20;2;2459;1145;3876;-3;-1543;-7638;-1006
1236357;2;20;2;2459;1078;3925;62;-1579;-7690;-906
1236367;2;20;2;2459;1048;3988;35;-1566;-7825;-780
1236377;2;20;2;2459;1004;4046;-41;-1544;-8030;-598
1236387;2;20;2;2459;1021;4104;-77;-1446;-8203;-527
1236397;2;20;2;2459;996;4143;-209;-987;-8407;-473
1236407;2;20;2;2459;958;4166;-400;-600;-8346;-605
1236417;2;20;2;2459;836;4145;-553;-427;-8205;-739
1236427;2;20;2;2460;662;4154;-618;-649;-7932;-1005
1236437;2;20;2;2460;356;4253;-450;-665;-7786;-1117
1236447;2;20;2;2460;129;4358;-319;-378;-7739;-1126
1236457;2;20;2;2460;4;4432;-265;162;-7514;-1104
1236467;2;20;2;2460;25;4573;-220;1286;-7150;-1286
1236477;2;20;2;2460;155;4406;-239;2073;-6977;-1197
1236487;2;20;2;2460;482;4505;-84;2037;-7136;-1296
1236497;2;20;2;2460;594;4610;147;1762;-7383;-1200
1236507;2;20;2;2460;569;4615;487;1875;-7851;-1351
1236517;2;20;2;2460;502;4618;620;2361;-8303;-1390
1236527;2;20;2;2460;321;4589;478;2992;-8391;-1466
1236537;2;20;2;2460;44;4698;349;3391;-8143;-1568
1236547;2;20;2;2460;-177;4800;190;3800;-7840;-1548
1236557;2;20;2;2460;-341;4976;-32;3981;-7621;-1369
1236567;2;20;2;2460;-389;5107;-296;3636;-7570;-1133
1236577;2;20;2;2460;-515;5133;-430;2428;-7801;-839
1236587;2;20;2;2460;-655;4981;-519;746;-8237;-393
1236597;2;20;2;2460;-695;4516;-430;-699;-8141;-389
1236607;2;20;2;2460;-580;4417;14;-1335;-7760;-581
1236617;2;20;2;2460;-275;4062;293;-1136;-7601;-566
1236627;2;20;2;2460;94;3900;505;-888;-7439;-704
1236637;2;20;2;2460;271;3732;834;-484;-7528;-799
1236647;2;20;2;2460;447;3644;797;-118;-7765;-1048
1236657;2;20;2;2460;450;3637;842;172;-7939;-1141
1236667;2;20;2;2460;314;3651;680;456;-8269;-1049
1236677;2;20;2;2460;142;3705;369;544;-8506;-896
1236687;2;20;2;2460;4;3723;119;570;-8682;-639
1236697;2;20;2;2460;-71;3751;-134;542;-8643;-411
1236707;2;20;2;2460;-39;3808;-244;478;-8446;-210
1236717;2;20;2;2460;65;3864;-302;261;-8153;-93
1236727;2;20;2;2460;191;3880;-236;-38;-7857;-36
1236737;2;20;2;2460;345;3909;-115;-274;-7618;-9
1236747;2;20;2;2460;476;3926;94;-290;-7404;-13
1236757;2;20;2;2460;560;3925;228;-123;-7225;12
1236767;2;20;2;2460;580;3951;248;152;-7003;48
1236777;2;20;2;2460;557;3962;196;345;-6703;85
1236787;2;20;2;2460;515;3946;109;437;-6340;153
1236797;2;20;2;2460;491;4041;67;486;-6036;245
1236807;2;20;2;2460;440;4072;20;394;-5698;367
1236817;2;20;2;2460;388;4118;-45;139;-5418;500
1236827;2;20;2;2460;315;4095;-144;-190;-5061;633
1236837;2;20;2;2460;285;4053;-105;-396;-4597;689
1236847;2;20;2;2460;280;4060;13;-436;-4273;739
1236857;2;20;2;2460;260;4041;87;-452;-4101;816
1236867;2;20;2;2460;225;3994;72;-359;-3974;853
1236877;2;20;2;2460;190;3955;35;-186;-3792;866
1236887;2;20;2;2460;142;3999;-22;-23;-3528;833
1236897;2;20;2;2460;134;4036;4;59;-3328;826
1236907;2;20;2;2460;95;4102;-62;19;-3256;850
1236917;2;20;2;2460;88;4117;-45;-137;-3196;841
1236927;2;20;2;2461;92;4196;-21;-315;-3277;862
1236937;2;20;2;2461;61;4170;-124;-456;-3347;871
1236947;2;20;2;2461;49;4118;-133;-554;-3321;833
1236957;2;20;2;2461;-1;4104;-141;-720;-3405;834
1236967;2;20;2;2461;-20;4064;-169;-965;-3612;872
1236977;2;20;2;2461;-46;4043;-192;-1150;-3776;911
1236987;2;20;2;2461;-27;3994;-229;-1190;-3852;922
1236997;2;20;2;2461;-7;3986;-265;-1125;-3741;864
1237007;2;20;2;2461;34;3992;-264;-1029;-3732;825
1237017;2;20;2;2461;82;3966;-296;-1070;-3852;819
1237027;2;20;2;2461;128;3901;-412;-1168;-3903;753
1237037;2;20;2;2461;131;3896;-465;-1229;-3816;637
1237047;2;20;2;2461;133;3856;-442;-1242;-3821;526
1237057;2;20;2;2461;95;3833;-435;-1313;-3937;478
1237067;2;20;2;2461;47;3759;-444;-1354;-4032;466
1237077;2;20;2;2461;121;3701;-396;-1225;-4028;434
1237087;2;20;2;2461;240;3729;-286;-847;-3985;389
1237097;2;20;2;2461;430;3785;-106;-356;-3921;326
1237107;2;20;2;2461;603;3881;32;157;-3792;150
1237117;2;20;2;2461;711;4014;114;721;-3618;-36
1237127;2;20;2;2461;792;4124;114;1269;-3463;-198
1237137;2;20;2;2461;878;4267;44;1829;-3287;-335
1237147;2;20;2;2461;886;4443;-53;2444;-3124;-391
1237157;2;20;2;2461;797;4655;-234;2949;-2950;-294
1237167;2;20;2;2461;605;4813;-467;3130;-2807;-22
1237177;2;20;2;2461;430;4865;-705;2848;-2780;373
1237187;2;20;2;2461;230;4833;-1102;2030;-2856;788
1237197;2;20;2;2461;224;4677;-1423;802;-2871;1158
1237207;2;20;2;2461;377;4514;-1493;-503;-2693;1331
1237217;2;20;2;2461;649;4365;-1288;-1558;-2557;1379
1237227;2;20;2;2461;1020;4240;-809;-2132;-2556;1255
1237237;2;20;2;2461;1146;4252;-251;-2183;-2664;1108
1237247;2;20;2;2461;1349;4144;381;-1655;-2743;929
1237257;2;20;2;2461;1447;4213;594;-883;-2886;768
1237267;2;20;2;2461;1521;4098;537;-181;-3068;683
1237277;2;20;2;2461;1543;4006;336;19;-3205;538
1237287;2;20;2;2461;1427;4019;147;-132;-3126;409
1237297;2;20;2;2461;1287;3928;143;-134;-2929;366
1237307;2;20;2;2461;1232;3913;157;156;-2684;351
1237317;2;20;2;2461;1245;3891;75;627;-2324;331
1237327;2;20;2;2461;1257;3884;59;928;-1998;286
1237337;2;20;2;2461;1283;3897;35;956;-1839;238
1237347;2;20;2;2461;1229;3930;45;852;-1804;182
1237357;2;20;2;2461;1118;3973;29;821;-1777;162
1237367;2;20;2;2461;969;4019;-58;844;-1706;134
1237377;2;20;2;2461;822;4106;-81;773;-1694;148
1237387;2;20;2;2461;689;4141;-166;547;-1801;213
1237397;2;20;2;2461;623;4162;-307;301;-1905;280
1237407;2;20;2;2461;618;4145;-401;110;-1983;308
1237417;2;20;2;2461;685;4107;-420;-99;-2064;322
1237427;2;20;2;2462;745;4083;-380;-281;-2187;312
1237437;2;20;2;2462;840;4089;-223;-451;-2441;299
1237447;2;20;2;2462;887;4070;-133;-643;-2742;309
1237457;2;20;2;2462;950;4049;-77;-814;-2952;295
1237467;2;20;2;2462;925;4050;3;-960;-3092;297
1237477;2;20;2;2462;894;4063;61;-1084;-3227;344
1237487;2;20;2;2462;916;4060;73;-1160;-3395;417
1237497;2;20;2;2462;957;4041;12;-1164;-3526;475
1237507;2;20;2;2462;988;4037;-31;-1143;-3610;493
1237517;2;20;2;2462;1044;4010;-133;-1149;-3718;490
1237527;2;20;2;2462;1091;3975;-261;-1240;-3691;415
1237537;2;20;2;2462;1117;3967;-275;-1360;-3649;337
1237547;2;20;2;2462;1105;3971;-217;-1447;-3585;246
1237557;2;20;2;2462;1089;3991;-76;-1417;-3557;182
1237567;2;20;2;2462;1061;4017;12;-1260;-3563;130
1237577;2;20;2;2462;1020;4017;40;-1118;-3608;93
1237587;2;20;2;2462;1006;3974;-2;-1051;-3605;60
1237597;2;20;2;2462;959;3926;-53;-994;-3540;32
1237607;2;20;2;2462;950;3923;-27;-918;-3366;-10
1237617;2;20;2;2462;966;3942;-56;-752;-3125;-94
1237627;2;20;2;2462;970;3979;-57;-595;-2955;-165
1237637;2;20;2;2462;914;4032;-144;-607;-2824;-220
1237647;2;20;2;2462;865;4068;-128;-687;-2620;-284
1237657;2;20;2;2462;812;4120;-47;-690;-2452;-311
1237667;2;20;2;2462;812;4181;17;-542;-2369;-312
1237677;2;20;2;2462;837;4208;-68;-291;-2384;-349
1237687;2;20;2;2462;809;4208;-293;-177;-2457;-395
1237697;2;20;2;2462;703;4180;-465;-471;-2510;-439
1237707;2;20;2;2462;571;4200;-472;-1047;-2553;-468
1237717;2;20;2;2462;472;4208;-404;-1457;-2586;-436
1237727;2;20;2;2462;441;4168;-319;-1548;-2524;-374
1237737;2;20;2;2462;531;4133;-230;-1401;-2338;-362
1237747;2;20;2;2462;673;4107;-79;-1160;-2094;-446
1237757;2;20;2;2462;792;4118;48;-783;-1857;-602
1237767;2;20;2;2462;810;4159;147;-272;-1593;-799
1237777;2;20;2;2462;827;4227;166;277;-1336;-979
1237787;2;20;2;2462;825;4292;-10;659;-1072;-1156
1237797;2;20;2;2462;659;4308;-179;553;-953;-1171
1237807;2;20;2;2462;480;4276;-410;2;-991;-1035
1237817;2;20;2;2462;311;4195;-578;-652;-943;-799
1237827;2;20;2;2462;271;4064;-568;-1158;-744;-539
1237837;2;20;2;2462;342;3950;-404;-1419;-492;-359
1237847;2;20;2;2462;498;3901;-100;-1472;-271;-251
1237857;2;20;2;2462;631;3873;239;-1237;-117;-218
1237867;2;20;2;2462;778;3842;471;-654;-100;-244
1237877;2;20;2;2462;860;3833;492;41;-197;-319
1237887;2;20;2;2462;870;3869;340;514;-333;-429
1237897;2;20;2;2462;756;3929;217;721;-458;-498
1237907;2;20;2;2462;627;4029;74;806;-527;-515
1237917;2;20;2;2462;573;4083;-42;875;-545;-478
1237927;2;20;2;2463;552;4131;-188;888;-548;-423
1237937;2;20;2;2463;534;4143;-311;775;-480;-370
1237947;2;20;2;2463;567;4170;-365;567;-423;-330
1237957;2;20;2;2463;574;4183;-395;338;-301;-301
1237967;2;20;2;2463;605;4208;-327;164;-165;-280
1237977;2;20;2;2463;611;4204;-277;-47;-123;-211
1237987;2;20;2;2463;610;4186;-224;-283;-130;-140
1237997;2;20;2;2463;616;4116;-180;-398;-145;-78
1238007;2;20;2;2463;638;4045;-167;-296;-57;-49
1238017;2;20;2;2463;672;4019;-115;-40;92;-87
1238027;2;20;2;2463;664;4014;-61;176;135;-136
1238037;2;20;2;2463;628;4040;-76;281;152;-195
1238047;2;20;2;2463;547;4075;-143;387;221;-252
1238057;2;20;2;2463;483;4103;-183;539;366;-323
1238067;2;20;2;2463;381;4159;-265;634;384;-355
1238077;2;20;2;2463;292;4185;-347;565;311;-341
1238087;2;20;2;2463;168;4223;-441;380;227;-324
1238097;2;20;2;2463;100;4200;-522;188;261;-298
1238107;2;20;2;2463;39;4179;-505;-37;297;-274
1238117;2;20;2;2463;39;4168;-421;-331;249;-247
1238127;2;20;2;2463;1;4166;-378;-528;203;-200
1238137;2;20;2;2463;88;4130;-221;-451;102;-258
1238147;2;20;2;2463;155;4170;-241;-249;-113;-229
1238157;2;20;2;2463;199;4103;-210;-101;-229;-291
1238167;2;20;2;2463;230;4094;-240;-14;-423;-320
1238177;2;20;2;2463;270;4077;-305;69;-504;-397
1238187;2;20;2;2463;270;4091;-332;43;-569;-441
1238197;2;20;2;2463;231;4091;-388;-98;-727;-463
1238207;2;20;2;2463;178;4113;-419;-310;-927;-446
1238217;2;20;2;2463;153;4101;-444;-485;-1099;-392
1238227;2;20;2;2463;148;4097;-459;-645;-1145;-376
1238237;2;20;2;2463;153;4082;-398;-811;-1190;-354
1238247;2;20;2;2463;170;4057;-343;-922;-1234;-334
1238257;2;20;2;2463;229;4042;-262;-892;-1274;-317
1238267;2;20;2;2463;297;4054;-169;-739;-1307;-316
1238277;2;20;2;2463;377;4081;-80;-490;-1379;-327
1238287;2;20;2;2463;458;4132;-36;-186;-1468;-356
1238297;2;20;2;2463;445;4164;-87;103;-1552;-369
1238307;2;20;2;2463;403;4156;-212;281;-1570;-383
1238317;2;20;2;2463;383;4142;-301;242;-1552;-379
1238327;2;20;2;2463;354;4115;-385;85;-1519;-353
1238337;2;20;2;2463;324;4106;-434;-87;-1436;-325
1238347;2;20;2;2463;284;4083;-436;-228;-1290;-303
1238357;2;20;2;2463;310;4070;-369;-298;-1146;-276
1238367;2;20;2;2463;331;4087;-240;-268;-1081;-242
1238377;2;20;2;2463;351;4107;-174;-184;-1093;-212
1238387;2;20;2;2463;331;4114;-104;-47;-1133;-189
1238397;2;20;2;2463;332;4119;-95;128;-1161;-168
1238407;2;20;2;2463;276;4117;-136;310;-1161;-156
1238417;2;20;2;2463;233;4146;-202;382;-1189;-129
1238427;2;20;2;2464;200;4149;-293;324;-1261;-69
1238437;2;20;2;2464;216;4131;-452;234;-1215;-80
1238447;2;20;2;2464;229;4120;-531;59;-1130;-130
1238457;2;20;2;2464;234;4123;-566;-270;-1062;-205
1238467;2;20;2;2464;200;4116;-469;-681;-1090;-244
1238477;2;20;2;2464;168;4094;-378;-935;-1120;-261
1238487;2;20;2;2464;159;4061;-224;-916;-1111;-267
1238497;2;20;2;2464;163;4061;-123;-736;-1176;-233
1238507;2;20;2;2464;174;4076;-53;-503;-1324;-190
1238517;2;20;2;2464;190;4089;-42;-281;-1513;-155
1238527;2;20;2;2464;201;4103;-114;-32;-1644;-141
1238537;2;20;2;2464;168;4113;-183;170;-1702;-174
1238547;2;20;2;2464;169;4121;-288;280;-1690;-229
1238557;2;20;2;2464;136;4142;-373;327;-1673;-289
1238567;2;20;2;2464;95;4155;-408;267;-1754;-282
1238577;2;20;2;2464;74;4162;-416;131;-1882;-252
1238587;2;20;2;2464;58;4162;-402;56;-1897;-254
1238597;2;20;2;2464;26;4190;-337;48;-1792;-307
1238607;2;20;2;2464;-11;4204;-214;37;-1679;-345
1238617;2;20;2;2464;-39;4210;-103;22;-1699;-308
1238627;2;20;2;2464;-68;4214;-42;7;-1819;-243
1238637;2;20;2;2464;-77;4208;-20;47;-1977;-141
1238647;2;20;2;2464;-121;4157;-95;207;-2138;-5
1238657;2;20;2;2464;-81;4089;-274;286;-2231;71
1238667;2;20;2;2464;-30;4060;-390;158;-2172;111
1238677;2;20;2;2464;69;4019;-321;0;-2074;103
1238687;2;20;2;2464;157;4037;-165;-65;-1995;91
1238697;2;20;2;2464;295;4064;4;-32;-1971;-12
1238707;2;20;2;2464;384;4079;119;72;-1963;-95
1238717;2;20;2;2464;373;4082;132;163;-1996;-168
1238727;2;20;2;2464;284;4086;134;197;-1969;-226
1238737;2;20;2;2464;221;4109;143;202;-1941;-173
1238747;2;20;2;2464;179;4107;121;254;-1942;-22
1238757;2;20;2;2464;181;4102;104;384;-1883;153
1238767;2;20;2;2464;242;4096;-23;621;-1665;291
1238777;2;20;2;2464;314;4072;-159;838;-1334;320
1238787;2;20;2;2464;350;4084;-227;846;-1008;330
1238797;2;20;2;2464;330;4062;-216;571;-770;347
1238807;2;20;2;2464;252;4075;-140;224;-608;397
1238817;2;20;2;2464;163;4099;-79;20;-452;445
1238827;2;20;2;2464;116;4048;-30;59;-280;520
1238837;2;20;2;2464;102;3989;-16;297;-91;588
1238847;2;20;2;2464;106;3999;-56;570;86;634
1238857;2;20;2;2464;127;3985;-38;736;206;631
1238867;2;20;2;2464;181;3982;-36;872;291;568
1238877;2;20;2;2464;142;4034;-35;977;361;501
1238887;2;20;2;2464;132;4048;-61;974;445;436
1238897;2;20;2;2464;41;4118;-45;877;527;371
1238907;2;20;2;2464;-38;4172;36;722;499;411
1238917;2;20;2;2464;-74;4213;85;585;424;503
1238927;2;20;2;2465;-109;4225;56;471;370;598
1238937;2;20;2;2465;-104;4257;-18;381;346;663
1238947;2;20;2;2465;-107;4287;-99;191;315;735
1238957;2;20;2;2465;-132;4295;-117;-236;244;810
1238967;2;20;2;2465;-120;4310;-85;-760;119;881
1238977;2;20;2;2465;-109;4294;2;-1125;-3;923
1238987;2;20;2;2465;-99;4269;85;-1293;-106;942
1238997;2;20;2;2465;-99;4243;155;-1369;-261;940
1239007;2;20;2;2465;-129;4204;211;-1459;-456;937
1239017;2;20;2;2465;-160;4163;212;-1474;-638;944
1239027;2;20;2;2465;-154;4141;213;-1329;-747;967
1239037;2;20;2;2465;-56;4102;159;-1158;-753;952
1239047;2;20;2;2465;27;4099;135;-1107;-750;871
1239057;2;20;2;2465;95;4075;98;-1197;-778;778
1239067;2;20;2;2465;108;4017;56;-1375;-740;635
1239077;2;20;2;2465;70;4016;106;-1605;-608;482
1239087;2;20;2;2465;1;3978;127;-1715;-462;370
1239097;2;20;2;2465;-50;3954;214;-1722;-330;315
1239107;2;20;2;2465;-36;3950;312;-1671;-260;300
1239117;2;20;2;2465;53;3982;387;-1476;-181;274
1239127;2;20;2;2465;162;4048;423;-1098;-61;194
1239137;2;20;2;2465;262;4092;412;-715;76;67
1239147;2;20;2;2465;440;4225;361;-447;100;-139
1239157;2;20;2;2465;598;4412;315;-120;-86;-450
1239167;2;20;2;2465;570;4644;140;679;-648;-741
1239177;2;20;2;2465;276;4797;-305;1688;-1142;-815
1239187;2;20;2;2465;-203;4956;-795;2029;-1398;-604
1239197;2;20;2;2465;-563;5090;-1278;1001;-1756;71
1239207;2;20;2;2465;-806;5027;-1561;-1143;-2230;734
1239217;2;20;2;2465;-611;4864;-1645;-3393;-2098;1146
1239227;2;20;2;2465;-114;4928;-1455;-4522;-1184;919
1239237;2;20;2;2465;544;4720;-858;-4542;-291;605
1239247;2;20;2;2465;1046;4515;-303;-4252;-64;233
1239257;2;20;2;2465;1432;4398;161;-4191;-372;125
1239267;2;20;2;2465;1455;3969;326;-4101;-729;48
1239277;2;20;2;2465;1357;3681;428;-3640;-1001;-285
1239287;2;20;2;2465;1146;3664;260;-2886;-1229;-276
1239297;2;20;2;2465;774;3608;86;-2223;-1497;84
1239307;2;20;2;2465;710;3496;-226;-1664;-1439;232
1239317;2;20;2;2465;662;3513;-353;-1203;-1274;457
1239327;2;20;2;2465;621;3542;-393;-835;-998;464
1239337;2;20;2;2465;800;3517;-361;-640;-911;781
1239347;2;20;2;2465;704;3556;-352;-403;-567;479
1239357;2;20;2;2465;985;3728;-13;245;-132;344
1239367;2;20;2;2465;1141;3828;174;1247;59;212
1239377;2;20;2;2465;1185;4001;200;2004;0;86
1239387;2;20;2;2465;1134;4107;6;2337;-57;31
1239397;2;20;2;2465;1010;4143;-190;2519;116;38
1239407;2;20;2;2465;878;4179;-359;2489;354;151
1239417;2;20;2;2465;800;4204;-527;2136;532;333
1239427;2;20;2;2466;826;4146;-648;1533;713;456
1239437;2;20;2;2466;860;4130;-679;855;838;497
1239447;2;20;2;2466;818;4094;-550;137;909;515
1239457;2;20;2;2466;774;4075;-227;-256;706;571
1239467;2;20;2;2466;720;4056;-32;-291;385;669
1239477;2;20;2;2466;714;3990;139;-32;21;736
1239487;2;20;2;2466;729;3964;118;176;-280;778
1239497;2;20;2;2466;764;3916;51;300;-561;792
1239507;2;20;2;2466;838;3887;17;363;-779;768
1239517;2;20;2;2466;888;3864;-19;433;-821;639
1239527;2;20;2;2466;976;3855;-13;503;-822;511
1239537;2;20;2;2466;988;3870;16;522;-846;380
1239547;2;20;2;2466;1012;3923;69;580;-859;261
1239557;2;20;2;2466;1001;3947;129;681;-855;171
1239567;2;20;2;2466;956;3984;154;768;-887;126
1239577;2;20;2;2466;911;4024;148;824;-942;136
1239587;2;20;2;2466;869;4066;99;875;-991;186
1239597;2;20;2;2466;882;4064;3;941;-990;259
1239607;2;20;2;2466;950;4048;-119;1016;-921;315
1239617;2;20;2;2466;1036;4039;-229;940;-803;307
1239627;2;20;2;2466;1106;4058;-241;728;-665;265
1239637;2;20;2;2466;1156;4039;-226;473;-447;155
1239647;2;20;2;2466;1119;4086;-81;257;-188;6
1239657;2;20;2;2466;1058;4128;127;134;-48;-116
1239667;2;20;2;2466;966;4182;263;142;-64;-164
1239677;2;20;2;2466;867;4139;271;179;-120;-181
1239687;2;20;2;2466;753;4170;189;205;-79;-161
1239697;2;20;2;2466;752;4123;110;203;47;-146
1239707;2;20;2;2466;772;4169;80;103;45;-16
1239717;2;20;2;2466;823;4153;-10;-90;-57;55
1239727;2;20;2;2466;850;4156;-66;-398;-82;69
1239737;2;20;2;2466;864;4115;-110;-730;-1;44
1239747;2;20;2;2466;872;4104;-51;-1129;20;7
1239757;2;20;2;2466;871;4133;52;-1570;-148;29
1239767;2;20;2;2466;855;4084;79;-1940;-452;83
1239777;2;20;2;2466;805;4050;81;-2247;-633;80
1239787;2;20;2;2466;821;4048;119;-2285;-706;50
1239797;2;20;2;2466;860;4027;196;-2048;-788;-34
1239807;2;20;2;2466;888;4072;263;-1739;-1032;-36
1239817;2;20;2;2466;846;4087;155;-1464;-1255;-74
1239827;2;20;2;2466;805;4176;147;-1063;-1184;-185
1239837;2;20;2;2466;788;4275;142;-419;-1040;-292
1239847;2;20;2;2466;784;4418;75;155;-1045;-383
1239857;2;20;2;2466;734;4512;-99;444;-1212;-397
1239867;2;20;2;2466;636;4548;-452;201;-1352;-321
1239877;2;20;2;2466;452;4566;-710;-362;-1309;-292
1239887;2;20;2;2466;373;4516;-797;-855;-1133;-207
1239897;2;20;2;2466;451;4436;-815;-1222;-967;-93
1239907;2;20;2;2466;623;4375;-648;-1433;-832;-36
1239917;2;20;2;2466;849;4361;-309;-1243;-717;-65
1239927;2;20;2;2467;977;4388;25;-680;-679;-135
1239937;2;20;2;2467;949;4413;173;-83;-775;-171
1239947;2;20;2;2467;803;4431;73;224;-984;-81
1239957;2;20;2;2467;649;4386;-203;196;-1198;111
1239967;2;20;2;2467;463;4303;-612;-131;-1223;298
1239977;2;20;2;2467;313;4188;-932;-565;-1012;485
1239987;2;20;2;2467;235;4019;-1122;-1104;-708;551
1239997;2;20;2;2467;227;3853;-1089;-1714;-461;493
1240007;2;20;2;2467;159;3699;-927;-2118;-376;399
1240017;2;20;2;2467;149;3608;-720;-2114;-301;295
1240027;2;20;2;2467;128;3500;-406;-1777;-184;119
1240037;2;20;2;2467;236;3491;-33;-1065;-48;-143
1240047;2;20;2;2467;367;3626;317;81;45;-358
1240057;2;20;2;2467;478;3666;503;1463;212;-604
1240067;2;20;2;2467;586;3726;585;2769;318;-892
1240077;2;20;2;2467;732;3869;491;3725;423;-1253
1240087;2;20;2;2467;818;3999;338;4270;579;-1654
1240097;2;20;2;2467;780;4131;148;4495;780;-2031
1240107;2;20;2;2467;596;4278;-122;4412;939;-2167
1240117;2;20;2;2467;378;4401;-430;3908;928;-2154
1240127;2;20;2;2467;87;4573;-750;2841;866;-1871
1240137;2;20;2;2467;-128;4627;-908;2144;1009;-1489
1240147;2;20;2;2467;-233;4376;-1091;1545;1354;-1026
1240157;2;20;2;2467;-343;4317;-1212;836;1845;-639
1240167;2;20;2;2467;-223;4106;-1193;64;2160;-357
1240177;2;20;2;2467;-40;4008;-900;-1009;2484;-112
1240187;2;20;2;2467;113;3969;-466;-1935;2711;65
1240197;2;20;2;2467;194;3959;72;-2315;2841;166
1240207;2;20;2;2467;258;3987;549;-1890;2893;272
1240217;2;20;2;2467;329;3985;717;-833;2879;359
1240227;2;20;2;2467;395;3974;627;286;2851;396
1240237;2;20;2;2467;481;3946;361;1000;2753;391
1240247;2;20;2;2467;459;3914;42;1182;2732;328
1240257;2;20;2;2467;375;3925;-185;1071;2893;250
1240267;2;20;2;2467;300;3924;-310;1021;3161;212
1240277;2;20;2;2467;263;3931;-354;1094;3433;233
1240287;2;20;2;2467;254;3983;-395;1005;3614;291
1240297;2;20;2;2467;249;3977;-430;704;3700;399
1240307;2;20;2;2467;227;3964;-418;365;3766;517
1240317;2;20;2;2467;232;3974;-329;227;3923;599
1240327;2;20;2;2467;259;3994;-210;369;4040;699
1240337;2;20;2;2467;313;3996;-122;568;4128;802
1240347;2;20;2;2467;340;4016;-110;711;4286;858
1240357;2;20;2;2467;382;4004;-41;785;4495;884
1240367;2;20;2;2467;387;3979;-90;709;4726;910
1240377;2;20;2;2467;391;3910;-192;438;5041;899
1240387;2;20;2;2467;357;3824;-258;100;5366;869
1240397;2;20;2;2467;332;3891;-246;7;5707;849
1240407;2;20;2;2467;492;4022;15;549;6120;692
1240417;2;20;2;2467;625;4348;269;1726;6098;539
1240427;2;20;2;2468;707;4545;273;2738;5721;414
1240437;2;20;2;2468;669;4686;-31;3015;5161;294
1240447;2;20;2;2468;488;4772;-357;2830;4592;208
1240457;2;20;2;2468;269;4743;-829;2763;3879;396
1240467;2;20;2;2468;78;4552;-1520;2544;3357;658
1240477;2;20;2;2468;-45;4403;-2072;1594;3301;1054
1240487;2;20;2;2468;230;4073;-2298;-161;3780;1172
1240497;2;20;2;2468;487;3942;-1819;-2378;4293;1094
1240507;2;20;2;2468;833;3850;-906;-4074;4325;1098
1240517;2;20;2;2468;1043;3851;204;-4318;4092;1078
1240527;2;20;2;2468;1197;3795;929;-2805;3672;1126
1240537;2;20;2;2468;1348;3557;867;-514;3128;1131
1240547;2;20;2;2468;1482;3383;337;1247;2675;1029
1240557;2;20;2;2468;1437;3282;-368;2081;2457;839
1240567;2;20;2;2468;1301;3293;-729;2350;2532;617
1240577;2;20;2;2468;1074;3449;-955;2347;2484;585
1240587;2;20;2;2468;923;3527;-1061;2212;2418;624
1240597;2;20;2;2468;799;3603;-1078;2062;2354;686
1240607;2;20;2;2468;717;3703;-1039;2024;2408;777
1240617;2;20;2;2468;690;3695;-866;1980;2462;852
1240627;2;20;2;2468;725;3693;-691;1960;2355;979
1240637;2;20;2;2468;818;3648;-528;2023;2097;1143
1240647;2;20;2;2468;938;3577;-450;2166;1683;1254
1240657;2;20;2;2468;1046;3531;-451;2408;1170;1370
1240667;2;20;2;2468;1046;3446;-504;2680;699;1456
1240677;2;20;2;2468;1033;3372;-641;2903;409;1465
1240687;2;20;2;2468;1001;3249;-814;3007;293;1405
1240697;2;20;2;2468;941;3236;-903;3032;274;1293
1240707;2;20;2;2468;891;3312;-818;3075;195;1282
1240717;2;20;2;2468;814;3243;-714;3208;-104;1284
1240727;2;20;2;2468;687;3160;-674;3352;-663;1367
1240737;2;20;2;2468;469;3010;-834;3709;-1284;1671
1240747;2;20;2;2468;323;2717;-1099;3976;-1756;1975
1240757;2;20;2;2468;326;2516;-1348;4067;-1852;2139
1240767;2;20;2;2468;281;2400;-1214;4147;-1527;2243
1240777;2;20;2;2468;142;2303;-748;4285;-1396;2234
1240787;2;20;2;2468;171;2043;-266;4787;-1822;2261
1240797;2;20;2;2468;82;1681;-259;5348;-2299;2033
1240807;2;20;2;2468;-28;1209;-395;5845;-2295;1790
1240817;2;20;2;2468;-1;849;-287;6078;-1851;1449
1240827;2;20;2;2468;43;734;25;6598;-1554;1181
1240837;2;20;2;2468;123;458;-184;6197;-1303;1271
1240847;2;20;2;2468;456;843;-126;5839;-1004;954
1240857;2;20;2;2468;462;1063;-139;6155;-1010;928
1240867;2;20;2;2468;538;1255;-451;6581;-1190;953
1240877;2;20;2;2468;815;1554;-666;6539;-1668;1140
1240887;2;20;2;2468;960;1835;-942;6430;-2309;1453
1240897;2;20;2;2468;860;1838;-1360;6507;-2733;1658
1240907;2;20;2;2468;947;1806;-1991;6716;-1921;1333
1240917;2;20;2;2468;886;1998;-2060;6449;-531;893
1240927;2;20;2;2469;826;2240;-1620;5902;803;496
1240937;2;20;2;2469;833;2583;-1312;5814;1284;313
1240947;2;20;2;2469;679;2968;-1319;6391;1307;347
1240957;2;20;2;2469;536;3206;-1712;7115;1266;603
1240967;2;20;2;2469;742;3299;-2131;7426;1015;844
1240977;2;20;2;2469;930;3312;-2454;6630;441;1241
1240987;2;20;2;2469;970;3233;-2661;5294;260;1183
1240997;2;20;2;2469;699;3267;-2238;4012;282;972
1241007;2;20;2;2469;404;3162;-1862;3855;-242;984
1241017;2;20;2;2469;170;3049;-2020;4018;-523;1042
1241027;2;20;2;2469;106;2930;-2116;3816;-173;1171
1241037;2;20;2;2469;376;2862;-1840;3470;310;1293
1241047;2;20;2;2469;556;2946;-1536;3354;607;1291
1241057;2;20;2;2469;608;2877;-1229;3778;833;1223
1241067;2;20;2;2469;962;2883;-1444;4590;1034;913
1241077;2;20;2;2469;840;3185;-1682;4181;800;619
1241087;2;20;2;2469;1054;2908;-1877;3947;162;492
1241097;2;20;2;2469;1153;2753;-2260;4576;-251;220
1241107;2;20;2;2469;1117;2604;-2490;5409;-352;-25
1241117;2;20;2;2469;875;2632;-2958;6211;-70;-146
1241127;2;20;2;2469;619;3001;-3095;6008;548;-213
1241137;2;20;2;2469;391;3596;-3082;6256;1095;-346
1241147;2;20;2;2469;285;3914;-3421;6886;1536;-502
1241157;2;20;2;2469;358;3812;-4270;7902;1396;-426
1241167;2;20;2;2469;678;3704;-5256;8133;1536;-838
1241177;2;20;2;2469;670;3772;-5566;7163;2548;-1147
1241187;2;20;2;2469;480;3943;-5310;6023;4141;-1719
1241197;2;20;2;2469;300;4062;-5031;5994;5425;-1981
1241207;2;20;2;2469;44;4420;-5037;6363;6272;-1953
1241217;2;20;2;2469;-500;4944;-5167;6245;6347;-1501
1241227;2;20;2;2469;-666;5212;-5397;6035;5750;-562
1241237;2;20;2;2469;-650;4971;-6168;5000;4705;362
1241247;2;20;2;2469;-931;4987;-7091;2836;4835;1031
1241257;2;20;2;2469;-1048;4973;-7381;401;6359;1700
1241267;2;20;2;2469;-309;4810;-6997;-1683;8093;2097
1241277;2;20;2;2469;665;4585;-6520;-3432;9654;1846
1241287;2;20;2;2469;1365;4450;-5649;-4928;11380;444
1241297;2;20;2;2469;1259;5081;-4742;-5157;12583;-1358
1241307;2;20;2;2469;1770;5148;-3454;-5536;13128;-2357
1241317;2;20;2;2469;3697;4096;-2990;-4900;11437;-2565
1241327;2;20;2;2469;5013;3730;-4365;-6084;6117;-2818
1241337;2;20;2;2469;4166;2902;-4868;-10260;1043;-3041
1241347;2;20;2;2469;1091;1934;-4029;-15072;-857;-2981
1241357;2;20;2;2469;-1011;1526;-1171;-16798;-1119;-1991
1241367;2;20;2;2469;-1434;1720;162;-11656;-2246;316
1241377;2;20;2;2469;-771;1540;-826;-4065;-4462;3417
1241387;2;20;2;2469;483;1026;-2672;-1105;-6550;6263
1241397;2;20;2;2469;1954;12;-4398;-1717;-6690;7193
1241407;2;20;2;2469;3883;-643;-5566;-4704;-4862;6322
1241417;2;20;2;2469;5105;-603;-5375;-9412;-2177;3850
1241427;2;20;2;2470;5245;-30;-3387;-12303;106;807
1241437;2;20;2;2470;4489;918;-969;-10911;766;-1765
1241447;2;20;2;2470;3560;2261;241;-5322;-730;-2694
1241457;2;20;2;2470;3076;4140;36;1633;-3385;-541
1241467;2;20;2;2470;1507;6501;-875;6666;-7201;5514
1241477;2;20;2;2470;1766;6348;-4121;8047;-10609;17259
1241487;2;20;2;2470;5510;2240;-9112;5862;-7040;26029
1241497;2;20;2;2470;8119;-1458;-12979;1141;3377;27307
1241507;2;20;2;2470;11810;-3318;-12697;-9842;16066;24114
1241517;2;20;2;2470;12329;-2865;-2236;-32768;20926;18164
1241527;2;20;2;2470;8980;-165;12500;-32768;13282;15910
1241537;2;20;2;2470;8883;-3353;6559;7555;10410;12631
1241547;2;20;2;2470;5746;-1410;-3107;6537;12396;4090
1241557;2;20;2;2470;5806;-2621;-1654;2528;13955;4421
1241567;2;20;2;2470;4676;-3086;369;4870;16103;1713
1241577;2;20;2;2470;4897;-2025;930;7169;14599;-1668
1241587;2;20;2;2470;3143;658;691;7622;10458;-3201
1241597;2;20;2;2470;679;2298;-589;6233;7745;-3618
1241607;2;20;2;2470;-1172;3344;-805;3696;7210;-2364
1241617;2;20;2;2470;-1622;3474;-932;251;6570;430
1241627;2;20;2;2470;-794;3364;-341;-4231;5447;3794
1241637;2;20;2;2470;1335;2705;127;-9343;3617;7364
1241647;2;20;2;2470;3268;1904;622;-12670;2100;9857
1241657;2;20;2;2470;5079;990;1060;-12751;1329;10945
1241667;2;20;2;2470;6380;438;2197;-10801;1016;10474
1241677;2;20;2;2470;7261;302;3075;-4669;1006;8825
1241687;2;20;2;2470;6595;767;864;-3917;1405;7471
1241697;2;20;2;2470;5901;29;768;-5378;2679;7679
1241707;2;20;2;2470;5515;-1105;1005;-5245;4628;7461
1241717;2;20;2;2470;5188;-752;1103;-4692;5969;6966
1241727;2;20;2;2470;5127;-423;1075;-3104;5896;6758
1241737;2;20;2;2470;5008;-248;877;-1181;5339;6113
1241747;2;20;2;2470;4604;147;438;303;4808;5425
1241757;2;20;2;2470;4111;291;16;173;4601;4761
1241767;2;20;2;2470;3933;504;-68;-1598;5077;4510
1241777;2;20;2;2470;4214;589;471;-3796;5479;4875
1241787;2;20;2;2470;4568;703;1252;-5349;4787;5263
1241797;2;20;2;2470;4867;997;1861;-5849;2889;5988
1241807;2;20;2;2470;5714;994;2218;-4061;428;6757
1241817;2;20;2;2470;5130;1544;1568;-485;-2112;8335
1241827;2;20;2;2470;6520;-335;637;3653;-4323;10106
1241837;2;20;2;2470;7081;-1799;-1475;3937;-3935;9744
1241847;2;20;2;2470;8680;-2966;-2961;-1314;-1107;7980
1241857;2;20;2;2470;9706;-3731;-2759;-9910;3603;3867
1241867;2;20;2;2470;7497;-2402;4351;-10727;9895;-366
1241877;2;20;2;2470;5031;-2046;6219;6473;13196;-2246
1241887;2;20;2;2470;3801;-2190;2097;7215;12054;-4262
1241897;2;20;2;2470;2625;-1612;2092;2022;8670;-3816
1241907;2;20;2;2470;2144;-1667;1793;884;5938;-2985
1241917;2;20;2;2470;1306;-328;1228;219;4381;-3272
1241927;2;20;2;2471;883;1542;1297;-244;3033;-2486
1241937;2;20;2;2471;872;2740;1416;-746;1606;-789
1241947;2;20;2;2471;2001;2463;1735;-1494;-589;923
1241957;2;20;2;2471;3148;1892;1889;-2668;-2889;1386
1241967;2;20;2;2471;4081;1379;1989;-2856;-4744;1039
1241977;2;20;2;2471;4311;921;1595;-2735;-6163;745
1241987;2;20;2;2471;4407;504;1098;-3114;-6748;589
1241997;2;20;2;2471;4638;87;940;-3568;-6285;535
1242007;2;20;2;2471;4816;-218;1022;-3643;-5723;223
1242017;2;20;2;2471;4820;-389;843;-3392;-5596;132
1242027;2;20;2;2471;4702;-406;590;-3170;-5335;407
1242037;2;20;2;2471;5032;-619;-215;-3457;-4560;376
1242047;2;20;2;2471;5097;-629;-404;-3053;-2988;225
1242057;2;20;2;2471;5192;-685;-392;-1339;-1055;-230
1242067;2;20;2;2471;5121;-483;-438;481;460;-602
1242077;2;20;2;2471;4967;-228;-400;1495;1488;-722
1242087;2;20;2;2471;4807;58;-97;1835;2241;-904
1242097;2;20;2;2471;4548;331;432;2093;2956;-1124
1242107;2;20;2;2471;4273;477;753;2366;2998;-1003
1242117;2;20;2;2471;4096;392;786;2117;2523;-688
1242127;2;20;2;2471;4068;395;852;1471;2166;-438
1242137;2;20;2;2471;4078;463;1079;894;1842;-166
1242147;2;20;2;2471;4267;316;1283;164;1394;113
1242157;2;20;2;2471;4478;236;1379;-691;435;-339
1242167;2;20;2;2471;4304;155;1386;-1074;-209;-612
1242177;2;20;2;2471;4166;216;1393;-1278;-1161;-1075
1242187;2;20;2;2471;3876;475;1275;-721;-1856;-1499
1242197;2;20;2;2471;3551;632;1134;-300;-2111;-1270
1242207;2;20;2;2471;3500;501;828;-209;-2308;-463
1242217;2;20;2;2471;3724;265;744;-553;-2017;4
1242227;2;20;2;2471;3981;201;909;-1369;-1791;159
1242237;2;20;2;2471;4507;98;1169;-2368;-1781;37
1242247;2;20;2;2471;4850;30;1414;-2830;-1760;-681
1242257;2;20;2;2471;4665;111;1715;-2188;-1634;-1423
1242267;2;20;2;2471;4219;172;2061;-203;-1732;-1713
1242277;2;20;2;2471;3961;154;1667;1716;-1872;-1622
1242287;2;20;2;2471;3919;161;1354;1874;-1886;-1442
1242297;2;20;2;2471;4182;300;1522;1260;-2182;-1223
1242307;2;20;2;2471;4697;290;1145;1319;-2964;-1296
1242317;2;20;2;2471;5049;220;565;924;-3599;-2039
1242327;2;20;2;2471;5389;257;210;-59;-4223;-3087
1242337;2;20;2;2471;5122;369;216;45;-4192;-3443
1242347;2;20;2;2471;5273;-232;428;-249;-4006;-3682
1242357;2;20;2;2471;5281;-621;941;-577;-3684;-3968
1242367;2;20;2;2471;5207;-795;1314;-20;-3647;-3944
1242377;2;20;2;2471;5349;-806;1311;694;-4048;-3962
1242387;2;20;2;2471;5702;-706;1105;1991;-4586;-4449
1242397;2;20;2;2471;5808;-663;662;3924;-4783;-5543
1242407;2;20;2;2471;5458;-279;282;5552;-4628;-6450
1242417;2;20;2;2471;5087;-122;-194;6165;-4865;-6566
1242427;2;20;2;2472;4674;-36;-667;5304;-5187;-6039
1242437;2;20;2;2472;4582;-57;-942;3627;-5251;-5524
1242447;2;20;2;2472;4541;-6;-1123;2131;-4756;-5336
1242457;2;20;2;2472;4359;272;-1386;1234;-3425;-5139
1242467;2;20;2;2472;4524;572;-1343;1337;-1562;-4893
1242477;2;20;2;2472;5048;645;-1084;1804;120;-5085
1242487;2;20;2;2472;5251;844;-735;1740;677;-5936
1242497;2;20;2;2472;4903;1382;-403;1665;57;-6617
1242507;2;20;2;2472;4569;1569;-335;1678;-1032;-6956
1242517;2;20;2;2472;4079;1805;-380;1861;-1842;-7002
1242527;2;20;2;2472;3642;1961;-428;2186;-2283;-6701
1242537;2;20;2;2472;3400;1914;-472;2474;-2484;-6419
1242547;2;20;2;2472;3253;1995;-547;2322;-2523;-6284
1242557;2;20;2;2472;3419;2109;-634;1864;-2402;-6217
1242567;2;20;2;2472;3644;2132;-659;1503;-2404;-6400
1242577;2;20;2;2472;3646;2116;-602;1332;-2786;-6658
1242587;2;20;2;2472;3524;2038;-798;1198;-3384;-6787
1242597;2;20;2;2472;3429;1911;-808;995;-3964;-6868
1242607;2;20;2;2472;3204;1906;-807;1079;-4351;-7219
1242617;2;20;2;2472;2881;1923;-676;1602;-4634;-7113
1242627;2;20;2;2472;2577;1834;-756;2156;-4930;-6723
1242637;2;20;2;2472;2491;1805;-752;2087;-5047;-6313
1242647;2;20;2;2472;2285;2009;-877;1588;-5086;-5951
1242657;2;20;2;2472;2291;2236;-1029;894;-4656;-5614
1242667;2;20;2;2472;2356;2498;-1205;228;-3678;-5741
1242677;2;20;2;2472;2442;2825;-1084;127;-2610;-5784
1242687;2;20;2;2472;2657;2907;-1044;676;-1974;-5538
1242697;2;20;2;2472;2924;2839;-1031;1449;-1557;-5390
1242707;2;20;2;2472;3071;2735;-1037;1796;-1371;-5475
1242717;2;20;2;2472;3024;2710;-968;1173;-1476;-5345
1242727;2;20;2;2472;3109;2615;-979;-10;-1361;-5093
1242737;2;20;2;2472;3230;2647;-605;-1002;-923;-5200
1242747;2;20;2;2472;3419;2746;-161;-1264;-835;-5208
1242757;2;20;2;2472;3387;2784;127;-905;-1083;-5540
1242767;2;20;2;2472;3233;2929;288;183;-1546;-5897
1242777;2;20;2;2472;3101;3008;94;1856;-2218;-6074
1242787;2;20;2;2472;2967;3031;-443;3414;-2797;-6223
1242797;2;20;2;2472;2692;3005;-1058;4086;-3013;-6405
1242807;2;20;2;2472;2460;2982;-1353;4150;-3057;-6624
1242817;2;20;2;2472;2189;3073;-1592;3639;-3068;-6626
1242827;2;20;2;2472;1979;3111;-1744;2686;-2977;-6418
1242837;2;20;2;2472;1775;3186;-1727;1715;-2883;-6360
1242847;2;20;2;2472;1630;3192;-1568;1071;-2695;-6112
1242857;2;20;2;2472;1461;3175;-1469;831;-2566;-6033
1242867;2;20;2;2472;1363;3207;-1342;1075;-2557;-5924
1242877;2;20;2;2472;1260;3197;-1362;1527;-2593;-5615
1242887;2;20;2;2472;1257;3134;-1431;1860;-2531;-5333
1242897;2;20;2;2472;1364;3122;-1564;1906;-2362;-5084
1242907;2;20;2;2472;1453;3187;-1557;1497;-2180;-4830
1242917;2;20;2;2472;1454;3219;-1507;807;-1977;-4482
1242927;2;20;2;2473;1539;3259;-1287;107;-1544;-4320
1242937;2;20;2;2473;1545;3365;-984;-161;-1372;-4059
1242947;2;20;2;2473;1597;3390;-751;114;-1553;-3632
1242957;2;20;2;2473;1650;3426;-507;580;-1839;-3338
1242967;2;20;2;2473;1675;3480;-509;1149;-2274;-3059
1242977;2;20;2;2473;1797;3483;-513;1840;-2934;-2751
1242987;2;20;2;2473;1954;3501;-929;2790;-3398;-2594
1242997;2;20;2;2473;1947;3417;-1322;3580;-3527;-2677
1243007;2;20;2;2473;2009;3267;-1581;4150;-3745;-2750
1243017;2;20;2;2473;2020;3126;-1938;4436;-3910;-2882
1243027;2;20;2;2473;1926;2989;-2144;4116;-3894;-3029
1243037;2;20;2;2473;1794;2828;-2227;3256;-3720;-3116
1243047;2;20;2;2473;1714;2821;-1987;2572;-3637;-3191
1243057;2;20;2;2473;1612;2827;-1710;2349;-3783;-3235
1243067;2;20;2;2473;1572;2846;-1530;2523;-4055;-3252
1243077;2;20;2;2473;1540;3022;-1485;3090;-4488;-3266
1243087;2;20;2;2473;1510;3184;-1520;3841;-5002;-3278
1243097;2;20;2;2473;1458;3246;-1661;4544;-5467;-3235
1243107;2;20;2;2473;1428;3194;-2063;4971;-5659;-3306
1243117;2;20;2;2473;1320;3197;-2468;5276;-5221;-3550
1243127;2;20;2;2473;1299;3191;-2774;5485;-4416;-3694
1243137;2;20;2;2473;1353;3186;-2819;5489;-3549;-3810
1243147;2;20;2;2473;1353;3148;-2685;5144;-3010;-3778
1243157;2;20;2;2473;1553;2702;-2568;4276;-2862;-3949
1243167;2;20;2;2473;1350;3243;-2411;2986;-3027;-4214
1243177;2;20;2;2473;1221;3426;-2046;2450;-3179;-4151
1243187;2;20;2;2473;1096;3378;-1700;3163;-3207;-4166
1243197;2;20;2;2473;935;3488;-1621;4966;-3335;-4155
1243207;2;20;2;2473;739;3648;-1801;6765;-3575;-4081
1243217;2;20;2;2473;666;3550;-2339;7953;-3969;-3719
1243227;2;20;2;2473;696;3322;-2952;8333;-4003;-3501
1243237;2;20;2;2473;701;3176;-3575;8368;-4004;-3094
1243247;2;20;2;2473;672;2969;-4128;8369;-4063;-2543
1243257;2;20;2;2473;632;2629;-4726;8188;-3899;-2159
1243267;2;20;2;2473;508;2355;-5083;7449;-3320;-2071
1243277;2;20;2;2473;265;2349;-5248;6322;-2502;-1919
1243287;2;20;2;2473;-45;2244;-5187;4804;-1457;-1785
1243297;2;20;2;2473;-389;2302;-5025;3187;-100;-2049
1243307;2;20;2;2473;-729;2596;-4517;2406;1165;-2174
1243317;2;20;2;2473;-733;2714;-4122;3061;1789;-1885
1243327;2;20;2;2473;-663;2852;-4074;4201;1940;-1601
1243337;2;20;2;2473;-497;2743;-4398;5435;1856;-1105
1243347;2;20;2;2473;-183;2438;-4941;6096;1698;-672
1243357;2;20;2;2473;-12;2246;-5396;5863;1615;-338
1243367;2;20;2;2473;127;2091;-5673;4845;1611;17
1243377;2;20;2;2473;248;1918;-5667;3379;1704;217
1243387;2;20;2;2473;354;1982;-5279;1837;1854;301
1243397;2;20;2;2473;450;2214;-4690;692;1758;353
1243407;2;20;2;2473;505;2438;-4173;532;1370;507
1243417;2;20;2;2473;589;2544;-3843;1237;762;717
1243427;2;20;2;2474;595;2619;-3695;2252;201;800
1243437;2;20;2;2474;581;2636;-3723;3192;-485;1014
1243447;2;20;2;2474;615;2497;-3989;3660;-1154;1410
1243457;2;20;2;2474;748;2410;-4457;3577;-1416;1858
1243467;2;20;2;2474;986;2328;-4803;3055;-1422;2448
1243477;2;20;2;2474;1370;2239;-5122;2278;-1561;2960
1243487;2;20;2;2474;1756;2236;-5442;1095;-1635;3195
1243497;2;20;2;2474;2209;2210;-5561;-757;-1416;2848
1243507;2;20;2;2474;2451;2341;-5155;-2874;-1002;1848
1243517;2;20;2;2474;2451;2580;-4661;-4750;-359;543
1243527;2;20;2;2474;2134;2556;-4254;-7033;1375;-966
1243537;2;20;2;2474;1610;2584;-1154;-8464;5802;-2659
1243547;2;20;2;2474;828;3133;2679;5941;9997;-4615
1243557;2;20;2;2474;945;2743;-1464;6265;6786;-4721
1243567;2;20;2;2474;1547;1759;-1897;-2352;1096;-3167
1243577;2;20;2;2474;1587;1524;-2107;-3414;-2996;-2684
1243587;2;20;2;2474;928;2029;-3507;102;-3981;-3539
1243597;2;20;2;2474;320;2360;-4878;4178;-1841;-4661
1243607;2;20;2;2474;206;1957;-5338;6297;1084;-5792
1243617;2;20;2;2474;-6;1820;-5285;5386;2223;-6783
1243627;2;20;2;2474;-414;1945;-5211;2646;1804;-7171
1243637;2;20;2;2474;-798;1947;-5152;-65;1304;-7047
1243647;2;20;2;2474;-1062;1884;-4906;-1535;1586;-6866
1243657;2;20;2;2474;-1236;1981;-4567;-1805;2001;-6637
1243667;2;20;2;2474;-1252;2045;-4344;-1819;2058;-6272
1243677;2;20;2;2474;-1336;2027;-4185;-2044;1806;-5765
1243687;2;20;2;2474;-1333;1814;-4210;-2380;1412;-4991
1243697;2;20;2;2474;-1203;1594;-4344;-2854;1359;-4162
1243707;2;20;2;2474;-948;1492;-4395;-3755;1572;-3456
1243717;2;20;2;2474;-576;1473;-4262;-5000;1876;-2918
1243727;2;20;2;2474;-273;1551;-4015;-6255;2031;-2338
1243737;2;20;2;2474;23;1566;-3787;-7323;2271;-1923
1243747;2;20;2;2474;315;1550;-3421;-8417;2882;-1596
1243757;2;20;2;2474;554;1478;-3078;-8923;3636;-1438
1243767;2;20;2;2474;929;1378;-2613;-9021;4561;-1457
1243777;2;20;2;2474;1279;1443;-2274;-8678;4910;-1754
1243787;2;20;2;2474;1367;1592;-1975;-7978;4727;-2162
1243797;2;20;2;2474;1249;1633;-1930;-6930;4258;-2491
1243807;2;20;2;2474;1100;1583;-2060;-5779;3886;-2727
1243817;2;20;2;2474;1008;1520;-2221;-4981;3487;-2821
1243827;2;20;2;2474;1008;1453;-2380;-4825;3083;-3006
1243837;2;20;2;2474;976;1503;-2445;-4991;2624;-3349
1243847;2;20;2;2474;919;1510;-2604;-4992;2295;-3759
1243857;2;20;2;2474;903;1508;-2925;-4637;2509;-4424
1243867;2;20;2;2474;847;1547;-3056;-4365;3115;-5313
1243877;2;20;2;2474;734;1694;-2950;-4490;3529;-6216
1243887;2;20;2;2474;634;1773;-2676;-4662;3300;-6806
1243897;2;20;2;2474;539;1833;-2665;-4409;2711;-7134
1243907;2;20;2;2474;429;1859;-2752;-3835;2316;-7364
1243917;2;20;2;2474;448;1882;-2908;-3224;2071;-7650
1243927;2;20;2;2475;394;2056;-3025;-2902;1805;-7794
1243937;2;20;2;2475;319;2102;-3099;-2804;1248;-7562
1243947;2;20;2;2475;314;2100;-3280;-2770;589;-7185
1243957;2;20;2;2475;296;2260;-3556;-2950;78;-6773
1243967;2;20;2;2475;289;2444;-3822;-3298;-223;-6107
1243977;2;20;2;2475;407;2443;-4064;-3925;141;-5650
1243987;2;20;2;2475;493;2660;-3974;-4843;914;-5590
1243997;2;20;2;2475;508;2947;-3550;-5438;1503;-5522
1244007;2;20;2;2475;477;3365;-3111;-5363;1477;-5269
1244017;2;20;2;2475;370;3776;-2929;-4709;983;-4743
1244027;2;20;2;2475;255;4052;-3038;-3877;400;-4064
1244037;2;20;2;2475;95;4135;-3345;-3191;-124;-3218
1244047;2;20;2;2475;-1;4167;-3769;-3115;-577;-2186
1244057;2;20;2;2475;-32;4054;-4067;-4166;-1041;-840
1244067;2;20;2;2475;192;3764;-4220;-6238;-1437;553
1244077;2;20;2;2475;467;3496;-3974;-9009;-1347;1332
1244087;2;20;2;2475;989;3251;-3756;-12135;-99;1062
1244097;2;20;2;2475;1335;3173;-2855;-16042;4043;-1175
1244107;2;20;2;2475;1152;3442;-388;-19077;8460;-4112
1244117;2;20;2;2475;909;3905;2282;-18441;9011;-5542
1244127;2;20;2;2475;252;5103;5373;-11268;6857;-5667
1244137;2;20;2;2475;-143;5102;4350;-1852;2020;-4926
1244147;2;20;2;2475;-751;4890;2184;-189;-3279;-3789
1244157;2;20;2;2475;-1292;4628;698;-49;-6954;-2105
1244167;2;20;2;2475;-1460;4640;-121;654;-7593;-1560
1244177;2;20;2;2475;-1445;4659;-1337;2040;-7117;-1106
1244187;2;20;2;2475;-1217;4470;-2253;3193;-5684;-1098
1244197;2;20;2;2475;-906;4156;-3019;3396;-4053;-1400
1244207;2;20;2;2475;-678;4027;-3469;2114;-2477;-1954
1244217;2;20;2;2475;-628;4016;-3420;-263;-1346;-2285
1244227;2;20;2;2475;-611;3874;-2903;-2796;-602;-2492
1244237;2;20;2;2475;-788;4033;-2195;-4659;45;-2622
1244247;2;20;2;2475;-1062;4211;-1363;-5325;649;-2537
1244257;2;20;2;2475;-1222;4333;-624;-4725;1092;-2387
1244267;2;20;2;2475;-1333;4620;-100;-3515;1245;-2037
1244277;2;20;2;2475;-1267;4810;127;-2180;928;-1458
1244287;2;20;2;2475;-993;4758;37;-827;473;-1031
1244297;2;20;2;2475;-693;4809;-340;290;293;-947
1244307;2;20;2;2475;-338;4669;-780;1305;309;-990
1244317;2;20;2;2475;48;4489;-1303;1902;481;-1525
1244327;2;20;2;2475;207;4587;-1611;1711;820;-2326
1244337;2;20;2;2475;109;4594;-1632;1153;883;-3140
1244347;2;20;2;2475;-114;4659;-1640;859;1080;-3934
1244357;2;20;2;2475;-409;4689;-1635;1063;1481;-4489
1244367;2;20;2;2475;-801;4754;-1571;1524;1849;-4601
1244377;2;20;2;2475;-1080;4646;-1632;1678;2038;-4351
1244387;2;20;2;2475;-1235;4446;-1777;1315;2295;-3957
1244397;2;20;2;2475;-1197;4072;-1885;623;2810;-3573
1244407;2;20;2;2475;-1125;3707;-1983;-186;3615;-3339
1244417;2;20;2;2475;-1074;3403;-1937;-877;4505;-3251
1244427;2;20;2;2476;-1076;3135;-1772;-1259;4935;-3117
1244437;2;20;2;2476;-1174;2987;-1703;-1388;4883;-2943
1244447;2;20;2;2476;-1351;2804;-1738;-1406;4668;-2673
1244457;2;20;2;2476;-1520;2735;-1792;-1268;4530;-2345
1244467;2;20;2;2476;-1671;2763;-1853;-1117;4306;-1697
1244477;2;20;2;2476;-1795;2668;-2036;-1430;4001;-916
1244487;2;20;2;2476;-1913;2616;-2144;-2037;4083;-450
1244497;2;20;2;2476;-1836;2576;-2185;-2787;4446;-94
1244507;2;20;2;2476;-1601;2614;-2172;-3374;5023;-24
1244517;2;20;2;2476;-1290;2758;-2060;-3799;5590;-235
1244527;2;20;2;2476;-1106;2969;-1849;-3908;6039;-663
1244537;2;20;2;2476;-1042;3042;-1627;-3538;6112;-975
1244547;2;20;2;2476;-999;3096;-1425;-2546;5775;-1231
1244557;2;20;2;2476;-1020;3041;-1439;-1243;5128;-1260
1244567;2;20;2;2476;-1033;2875;-1723;-316;4618;-1205
1244577;2;20;2;2476;-1105;2809;-1989;-229;4494;-1164
1244587;2;20;2;2476;-1172;2724;-2081;-781;4648;-1119
1244597;2;20;2;2476;-1156;2658;-1990;-1394;5024;-1109
1244607;2;20;2;2476;-1132;2725;-1813;-1900;5433;-1141
1244617;2;20;2;2476;-1103;2862;-1553;-2150;5709;-1122
1244627;2;20;2;2476;-909;2961;-1543;-2145;6109;-1170
1244637;2;20;2;2476;-788;3052;-1392;-2124;6880;-1468
1244647;2;20;2;2476;-696;3139;-1133;-1825;7554;-1744
1244657;2;20;2;2476;-638;3226;-884;-1335;7866;-1864
1244667;2;20;2;2476;-544;3240;-848;-776;7915;-1927
1244677;2;20;2;2476;-513;3295;-773;-210;7922;-2030
1244687;2;20;2;2476;-484;3271;-871;359;7771;-1960
1244697;2;20;2;2476;-525;3272;-994;897;7724;-1892
1244707;2;20;2;2476;-614;3226;-1196;1337;7555;-1588
1244717;2;20;2;2476;-624;3071;-1487;1338;7479;-1349
1244727;2;20;2;2476;-609;2908;-1699;866;7712;-1230
1244737;2;20;2;2476;-583;2854;-1809;279;7940;-1096
1244747;2;20;2;2476;-583;2796;-1743;-475;8280;-978
1244757;2;20;2;2476;-546;2850;-1506;-1285;8602;-1018
1244767;2;20;2;2476;-452;2939;-1212;-1718;8761;-966
1244777;2;20;2;2476;-345;3044;-958;-1683;8718;-908
1244787;2;20;2;2476;-303;3077;-824;-1402;8580;-922
1244797;2;20;2;2476;-205;3205;-774;-951;8423;-931
1244807;2;20;2;2476;-107;3175;-793;-719;8654;-943
1244817;2;20;2;2476;-116;3278;-665;-601;8640;-930
1244827;2;20;2;2476;-115;3161;-630;-463;8355;-574
1244837;2;20;2;2476;-84;3085;-708;-248;8110;-248
1244847;2;20;2;2476;-17;2904;-737;-174;7967;16
1244857;2;20;2;2476;32;2870;-927;-413;7978;112
1244867;2;20;2;2476;-25;3000;-912;-933;8101;98
1244877;2;20;2;2476;-53;3100;-802;-1466;8052;160
1244887;2;20;2;2476;-40;3194;-612;-1741;7811;239
1244897;2;20;2;2476;-67;3272;-470;-1670;7187;396
1244907;2;20;2;2476;-101;3250;-437;-1258;6381;501
1244917;2;20;2;2476;-95;3215;-635;-576;5655;550
1244927;2;20;2;2477;-85;3127;-1029;293;5131;568
1244937;2;20;2;2477;-122;3002;-1408;728;4813;469
1244947;2;20;2;2477;-93;2831;-1839;329;4738;178
1244957;2;20;2;2477;-118;2772;-2165;-793;4988;-384
1244967;2;20;2;2477;-87;2729;-2383;-2358;5873;-1255
1244977;2;20;2;2477;-144;2624;-2303;-3670;6769;-2097
1244987;2;20;2;2477;-382;2623;-2059;-4788;7289;-2513
1244997;2;20;2;2477;-676;2573;-1833;-5607;7380;-2470
1245007;2;20;2;2477;-648;2492;-1518;-6206;7461;-2123
1245017;2;20;2;2477;-495;2965;-1010;-5904;6706;-1654
1245027;2;20;2;2477;-434;3720;-812;-3439;4036;-623
1245037;2;20;2;2477;-493;4288;-1758;337;649;636
1245047;2;20;2;2477;-644;4650;-2968;3476;-1356;1554
1245057;2;20;2;2477;-635;4836;-4023;5444;-2357;2075
1245067;2;20;2;2477;-400;5088;-4878;6067;-2531;1610
1245077;2;20;2;2477;-162;5342;-5649;4760;-1413;826
1245087;2;20;2;2477;-139;5091;-5414;1983;12;13
1245097;2;20;2;2477;-115;4851;-4549;-295;214;-1003
1245107;2;20;2;2477;-112;4877;-3459;-440;-521;-1659
1245117;2;20;2;2477;-192;4668;-2976;2200;-1449;-2096
1245127;2;20;2;2477;-532;4355;-2956;4251;-2329;-2109
1245137;2;20;2;2477;-875;3907;-2847;5378;-3724;-1683
1245147;2;20;2;2477;-1363;3362;-3331;5861;-4302;-694
1245157;2;20;2;2477;-1543;2806;-3265;4914;-3376;-56
1245167;2;20;2;2477;-1438;2812;-3144;3859;-1604;251
1245177;2;20;2;2477;-852;2925;-2257;1695;467;931
1245187;2;20;2;2477;-200;3093;-1637;456;1045;1373
1245197;2;20;2;2477;593;3213;-1156;539;945;1837
1245207;2;20;2;2477;1089;3264;-1147;1783;934;1890
1245217;2;20;2;2477;1182;3259;-1206;2880;1141;1856
1245227;2;20;2;2477;1157;3083;-1079;3626;1066;1743
1245237;2;20;2;2477;862;3238;-1082;4185;907;1804
1245247;2;20;2;2477;591;3146;-1262;4181;485;2260
1245257;2;20;2;2477;474;3074;-1492;3427;-22;2676
1245267;2;20;2;2477;270;3035;-1628;2435;-444;3139
1245277;2;20;2;2477;140;3071;-1727;1733;-975;3616
1245287;2;20;2;2477;106;3029;-1868;1183;-1347;4073
1245297;2;20;2;2477;109;3197;-1960;438;-1718;4393
1245307;2;20;2;2477;109;3492;-1953;73;-1657;4406
1245317;2;20;2;2477;126;3630;-1863;323;-1494;4156
1245327;2;20;2;2477;116;3698;-1989;1023;-1632;3953
1245337;2;20;2;2477;99;3651;-2287;1371;-1938;3805
1245347;2;20;2;2477;158;3503;-2535;1654;-2195;3549
1245357;2;20;2;2477;169;3392;-2781;1809;-2280;3320
1245367;2;20;2;2477;223;3336;-2911;1502;-2383;3157
1245377;2;20;2;2477;256;3290;-2929;827;-2445;2908
1245387;2;20;2;2477;269;3267;-2797;299;-2409;2564
1245397;2;20;2;2477;209;3327;-2460;309;-2372;2267
1245407;2;20;2;2477;234;3415;-1977;1197;-2289;2148
1245417;2;20;2;2477;326;3544;-1727;2318;-2214;2054
