timestamp;subject_id;activity;label;seq;ax;ay;az;gx;gy;gz
1906427;2;20;2;3800;1415;3878;-496;116;-80;-161
1906437;2;20;2;3800;1469;3884;-509;112;14;-151
1906447;2;20;2;3800;1512;3882;-528;-7;-10;-142
1906457;2;20;2;3800;1530;3908;-578;-214;-11;-180
1906467;2;20;2;3800;1502;3914;-553;-349;0;-202
1906477;2;20;2;3800;1485;3926;-517;-483;26;-207
1906487;2;20;2;3800;1458;3906;-441;-602;30;-194
1906497;2;20;2;3800;1424;3924;-338;-663;23;-166
1906507;2;20;2;3800;1431;3923;-219;-576;3;-157
1906517;2;20;2;3800;1450;3914;-202;-341;-39;-166
1906527;2;20;2;3800;1449;3908;-285;-11;-87;-195
1906537;2;20;2;3800;1483;3876;-422;164;-65;-226
1906547;2;20;2;3800;1483;3839;-518;90;5;-260
1906557;2;20;2;3800;1492;3829;-618;-197;87;-289
1906567;2;20;2;3800;1469;3847;-590;-547;169;-294
1906577;2;20;2;3800;1425;3877;-507;-867;169;-252
1906587;2;20;2;3800;1404;3916;-421;-1054;155;-190
1906597;2;20;2;3800;1398;3956;-351;-1098;188;-128
1906607;2;20;2;3800;1437;3978;-306;-1040;191;-101
1906617;2;20;2;3800;1467;3989;-291;-892;159;-101
1906627;2;20;2;3800;1500;3963;-277;-811;43;-119
1906637;2;20;2;3800;1492;3932;-277;-770;-119;-114
1906647;2;20;2;3800;1492;3919;-258;-758;-288;-92
1906657;2;20;2;3800;1495;3896;-209;-741;-517;-48
1906667;2;20;2;3800;1537;3872;-201;-682;-761;-5
1906677;2;20;2;3800;1532;3893;-326;-597;-841;-10
1906687;2;20;2;3800;1530;3884;-398;-539;-779;-37
1906697;2;20;2;3800;1514;3884;-483;-610;-639;-67
1906707;2;20;2;3800;1511;3881;-548;-790;-384;-91
1906717;2;20;2;3800;1525;3861;-459;-1078;-180;-93
1906727;2;20;2;3800;1519;3852;-322;-1415;-210;-66
1906737;2;20;2;3800;1519;3902;-192;-1580;-293;-36
1906747;2;20;2;3800;1489;3969;-130;-1472;-267;-50
1906757;2;20;2;3800;1474;3957;-137;-1243;-250;-77
1906767;2;20;2;3800;1471;3990;-67;-1100;-334;-42
1906777;2;20;2;3800;1505;4002;-120;-1050;-506;-33
1906787;2;20;2;3800;1489;3991;-222;-966;-550;-6
1906797;2;20;2;3800;1537;3979;-362;-971;-445;-15
1906807;2;20;2;3800;1542;3962;-493;-1184;-208;-10
1906817;2;20;2;3800;1603;3943;-523;-1687;125;-30
1906827;2;20;2;3800;1585;3941;-531;-2302;522;-60
1906837;2;20;2;3800;1630;4006;-457;-2928;1099;-105
1906847;2;20;2;3800;1635;3993;-327;-3278;1471;15
1906857;2;20;2;3800;1602;3884;-58;-3604;1442;134
1906867;2;20;2;3800;1518;3964;115;-3889;1214;284
1906877;2;20;2;3800;1496;3895;268;-4087;807;518
1906887;2;20;2;3800;1461;3887;340;-4119;525;665
1906897;2;20;2;3800;1490;3863;357;-4100;314;783
1906907;2;20;2;3800;1517;3848;394;-4086;227;832
1906917;2;20;2;3800;1562;3832;366;-4063;321;813
1906927;2;20;2;3801;1616;3847;388;-4036;605;717
1906937;2;20;2;3801;1712;3768;513;-4106;722;643
1906947;2;20;2;3801;1792;3734;716;-4332;638;482
1906957;2;20;2;3801;1785;3696;964;-4437;362;383
1906967;2;20;2;3801;1760;3774;1328;-3801;-34;242
1906977;2;20;2;3801;1731;3775;1434;-2782;-559;177
1906987;2;20;2;3801;1709;3750;1283;-1848;-1089;49
1906997;2;20;2;3801;1678;3695;975;-1533;-1515;-79
1907007;2;20;2;3801;1700;3638;755;-1627;-1827;-261
1907017;2;20;2;3801;1642;3707;618;-1631;-2033;-471
1907027;2;20;2;3801;1630;3754;538;-1606;-2137;-669
1907037;2;20;2;3801;1607;3725;619;-1530;-2180;-845
1907047;2;20;2;3801;1636;3748;713;-1548;-2375;-1075
1907057;2;20;2;3801;1690;3755;731;-1657;-2672;-1297
1907067;2;20;2;3801;1722;3768;693;-1766;-3029;-1490
1907077;2;20;2;3801;1710;3779;693;-1867;-3488;-1679
1907087;2;20;2;3801;1646;3796;673;-1960;-3966;-1807
1907097;2;20;2;3801;1574;3796;549;-2141;-4357;-1949
1907107;2;20;2;3801;1538;3872;570;-2210;-4655;-2015
1907117;2;20;2;3801;1487;3884;536;-2118;-4989;-1985
1907127;2;20;2;3801;1492;3881;519;-2192;-5389;-1922
1907137;2;20;2;3801;1486;3902;483;-2258;-5802;-1794
1907147;2;20;2;3801;1495;3886;449;-2266;-6035;-1676
1907157;2;20;2;3801;1520;3867;413;-2306;-6202;-1566
1907167;2;20;2;3801;1510;3784;470;-2396;-6279;-1448
1907177;2;20;2;3801;1531;3779;544;-2510;-6424;-1337
1907187;2;20;2;3801;1545;3741;618;-2565;-6696;-1193
1907197;2;20;2;3801;1570;3720;658;-2633;-7067;-1042
1907207;2;20;2;3801;1532;3689;615;-2763;-7394;-940
1907217;2;20;2;3801;1535;3710;487;-2868;-7669;-894
1907227;2;20;2;3801;1619;3668;343;-2898;-7874;-936
1907237;2;20;2;3801;1723;3644;147;-2949;-8076;-979
1907247;2;20;2;3801;1733;3667;130;-3000;-8215;-1129
1907257;2;20;2;3801;1683;3713;123;-2740;-8324;-1233
1907267;2;20;2;3801;1716;3656;119;-2536;-8388;-1329
1907277;2;20;2;3801;1734;3585;216;-2445;-8502;-1448
1907287;2;20;2;3801;1761;3536;283;-2414;-8737;-1536
1907297;2;20;2;3801;1798;3505;227;-2393;-8986;-1681
1907307;2;20;2;3801;1797;3511;203;-2397;-9117;-1762
1907317;2;20;2;3801;1780;3512;182;-2435;-9284;-1814
1907327;2;20;2;3801;1797;3535;81;-2470;-9443;-1816
1907337;2;20;2;3801;1804;3534;-137;-2527;-9449;-1783
1907347;2;20;2;3801;1782;3589;-295;-2558;-9407;-1700
1907357;2;20;2;3801;1753;3572;-439;-2410;-9389;-1572
1907367;2;20;2;3801;1753;3568;-523;-2215;-9229;-1422
1907377;2;20;2;3801;1709;3542;-438;-2108;-9132;-1248
1907387;2;20;2;3801;1674;3531;-337;-1998;-9088;-1071
1907397;2;20;2;3801;1641;3466;-229;-1880;-9122;-884
1907407;2;20;2;3801;1715;3428;-136;-1749;-9331;-784
1907417;2;20;2;3801;1728;3512;-122;-1533;-9613;-670
1907427;2;20;2;3802;1686;3514;-222;-1191;-9759;-592
1907437;2;20;2;3802;1641;3608;-287;-681;-9727;-626
1907447;2;20;2;3802;1645;3735;-332;-13;-9574;-691
1907457;2;20;2;3802;1600;3936;-341;814;-9403;-771
1907467;2;20;2;3802;1506;4118;-415;1786;-9231;-845
1907477;2;20;2;3802;1379;4427;-596;2385;-9180;-835
1907487;2;20;2;3802;1302;4662;-782;2410;-9156;-807
1907497;2;20;2;3802;1285;4894;-856;1966;-9120;-637
1907507;2;20;2;3802;1351;5073;-893;1152;-9066;-564
1907517;2;20;2;3802;1583;5377;-674;426;-8943;-770
1907527;2;20;2;3802;1726;5548;-310;114;-8940;-841
1907537;2;20;2;3802;1816;5522;131;-342;-9310;-917
1907547;2;20;2;3802;1659;5315;418;-718;-9969;-916
1907557;2;20;2;3802;1369;4978;287;-959;-10477;-894
1907567;2;20;2;3802;1051;4687;-31;-1145;-10330;-944
1907577;2;20;2;3802;842;4508;-177;-1292;-9588;-1000
1907587;2;20;2;3802;666;4381;-28;-1367;-8717;-987
1907597;2;20;2;3802;622;4321;240;-1273;-8020;-913
1907607;2;20;2;3802;644;4231;552;-1136;-7593;-781
1907617;2;20;2;3802;724;4155;766;-1043;-7359;-642
1907627;2;20;2;3802;840;4052;892;-910;-7175;-743
1907637;2;20;2;3802;925;4102;1104;-730;-7192;-899
1907647;2;20;2;3802;1039;4057;993;-474;-7525;-999
1907657;2;20;2;3802;1078;4061;808;-477;-7969;-1107
1907667;2;20;2;3802;898;4161;563;-601;-8296;-1194
1907677;2;20;2;3802;672;4228;216;-763;-8412;-1219
1907687;2;20;2;3802;405;4321;-83;-1062;-8294;-1094
1907697;2;20;2;3802;320;4383;-256;-1501;-8107;-830
1907707;2;20;2;3802;416;4381;-296;-2088;-8042;-498
1907717;2;20;2;3802;582;4375;-280;-2651;-7940;-279
1907727;2;20;2;3802;782;4265;-121;-2912;-7764;-167
1907737;2;20;2;3802;889;4119;110;-2961;-7548;-145
1907747;2;20;2;3802;1008;3894;350;-2761;-7412;-201
1907757;2;20;2;3802;1101;3668;407;-2427;-7461;-261
1907767;2;20;2;3802;1160;3438;321;-2146;-7492;-388
1907777;2;20;2;3802;1159;3279;249;-1833;-7297;-506
1907787;2;20;2;3802;1167;3236;268;-1409;-6979;-563
1907797;2;20;2;3802;1189;3336;306;-1044;-6755;-445
1907807;2;20;2;3802;1223;3412;122;-966;-6519;-244
1907817;2;20;2;3802;1242;3559;-16;-1126;-6211;-94
1907827;2;20;2;3802;1253;3709;-112;-1415;-5955;33
1907837;2;20;2;3802;1200;3934;-50;-1743;-5825;48
1907847;2;20;2;3802;1123;4058;-4;-1824;-5696;53
1907857;2;20;2;3802;987;4195;132;-1703;-5676;2
1907867;2;20;2;3802;891;4288;144;-1588;-5726;-72
1907877;2;20;2;3802;803;4308;178;-1561;-5742;-135
1907887;2;20;2;3802;724;4335;178;-1558;-5654;-71
1907897;2;20;2;3802;733;4338;146;-1535;-5576;65
1907907;2;20;2;3802;777;4303;41;-1618;-5442;234
1907917;2;20;2;3802;811;4282;64;-1740;-5325;382
1907927;2;20;2;3803;827;4202;-24;-1924;-5256;523
1907937;2;20;2;3803;845;4123;-80;-2134;-5089;528
1907947;2;20;2;3803;823;4099;-4;-2241;-4867;480
1907957;2;20;2;3803;746;4067;128;-2298;-4749;428
1907967;2;20;2;3803;682;4014;241;-2390;-4843;447
1907977;2;20;2;3803;663;4064;280;-2233;-4982;507
1907987;2;20;2;3803;658;4064;230;-2063;-5090;552
1907997;2;20;2;3803;699;4045;189;-1903;-5046;570
1908007;2;20;2;3803;772;4030;138;-1783;-4997;585
1908017;2;20;2;3803;841;4003;141;-1718;-5005;597
1908027;2;20;2;3803;877;3922;45;-1669;-4940;584
1908037;2;20;2;3803;882;3907;13;-1594;-4682;505
1908047;2;20;2;3803;915;3956;176;-1511;-4538;426
1908057;2;20;2;3803;876;4014;270;-1468;-4572;403
1908067;2;20;2;3803;852;4072;267;-1455;-4690;435
1908077;2;20;2;3803;791;4102;164;-1463;-4692;481
1908087;2;20;2;3803;804;4079;108;-1574;-4649;593
1908097;2;20;2;3803;831;4045;89;-1681;-4673;700
1908107;2;20;2;3803;874;4040;140;-1704;-4685;752
1908117;2;20;2;3803;874;4006;229;-1699;-4815;807
1908127;2;20;2;3803;877;3948;283;-1614;-5048;815
1908137;2;20;2;3803;890;3935;274;-1501;-5321;803
1908147;2;20;2;3803;913;3875;162;-1350;-5458;736
1908157;2;20;2;3803;983;3854;-18;-1303;-5486;611
1908167;2;20;2;3803;1059;3852;-54;-1258;-5469;530
1908177;2;20;2;3803;1081;3834;-56;-1194;-5415;528
1908187;2;20;2;3803;1113;3825;-52;-1140;-5265;542
1908197;2;20;2;3803;1173;3834;50;-1072;-4963;544
1908207;2;20;2;3803;1249;3872;134;-1038;-4714;540
1908217;2;20;2;3803;1454;3915;155;-1096;-4600;524
1908227;2;20;2;3803;1631;3992;147;-1059;-4539;449
1908237;2;20;2;3803;1808;4041;55;-919;-4440;332
1908247;2;20;2;3803;1831;4049;-92;-1003;-4359;206
1908257;2;20;2;3803;1696;4136;-128;-1274;-4440;188
1908267;2;20;2;3803;1421;4233;-273;-1491;-4668;432
1908277;2;20;2;3803;1164;4230;-461;-1738;-4742;806
1908287;2;20;2;3803;922;4226;-560;-1955;-4508;1058
1908297;2;20;2;3803;956;4151;-485;-2092;-4015;1169
1908307;2;20;2;3803;1085;4030;-214;-2152;-3409;1115
1908317;2;20;2;3803;1234;3945;118;-2120;-3016;1018
1908327;2;20;2;3803;1329;3786;210;-1914;-2851;882
1908337;2;20;2;3803;1478;3652;191;-1670;-2792;690
1908347;2;20;2;3803;1607;3519;88;-1292;-2742;466
1908357;2;20;2;3803;1671;3418;95;-1141;-2682;222
1908367;2;20;2;3803;1651;3333;119;-1292;-2616;-23
1908377;2;20;2;3803;1611;3306;266;-1579;-2523;-193
1908387;2;20;2;3803;1634;3294;484;-1888;-2659;-248
1908397;2;20;2;3803;1662;3309;463;-1968;-2887;-272
1908407;2;20;2;3803;1672;3363;387;-1843;-2843;-316
1908417;2;20;2;3803;1722;3329;312;-1789;-2381;-520
1908427;2;20;2;3804;1868;3587;516;-1759;-1778;-941
1908437;2;20;2;3804;1902;3980;808;-1362;-1527;-1197
1908447;2;20;2;3804;1850;4267;1002;-757;-1627;-1296
1908457;2;20;2;3804;1604;4577;887;-97;-1885;-1142
1908467;2;20;2;3804;1295;4559;501;231;-1931;-544
1908477;2;20;2;3804;1153;4919;156;185;-1699;-276
1908487;2;20;2;3804;1350;4983;-19;322;-1265;123
1908497;2;20;2;3804;1484;4892;-124;382;-754;537
1908507;2;20;2;3804;1665;4563;-160;-136;-503;939
1908517;2;20;2;3804;1784;4294;69;-725;-217;1235
1908527;2;20;2;3804;1816;4095;581;-778;81;1432
1908537;2;20;2;3804;1835;3874;1064;-524;42;1509
1908547;2;20;2;3804;1824;3605;1202;-407;-457;1573
1908557;2;20;2;3804;1712;3442;1041;-422;-1189;1601
1908567;2;20;2;3804;1586;3341;698;-466;-1638;1549
1908577;2;20;2;3804;1501;3322;458;-422;-1713;1430
1908587;2;20;2;3804;1480;3352;325;-288;-1619;1294
1908597;2;20;2;3804;1545;3443;302;-203;-1480;1144
1908607;2;20;2;3804;1607;3521;395;-236;-1330;981
1908617;2;20;2;3804;1674;3616;539;-317;-1264;829
1908627;2;20;2;3804;1717;3693;561;-359;-1250;707
1908637;2;20;2;3804;1762;3720;551;-334;-1181;625
1908647;2;20;2;3804;1802;3740;578;-338;-1113;574
1908657;2;20;2;3804;1841;3781;682;-395;-1137;560
1908667;2;20;2;3804;1880;3774;773;-394;-1354;577
1908677;2;20;2;3804;1899;3730;768;-454;-1651;573
1908687;2;20;2;3804;1881;3705;694;-714;-1899;503
1908697;2;20;2;3804;1859;3734;637;-1023;-2099;422
1908707;2;20;2;3804;1828;3758;634;-1183;-2246;321
1908717;2;20;2;3804;1789;3809;618;-1218;-2423;240
1908727;2;20;2;3804;1760;3852;502;-1139;-2552;186
1908737;2;20;2;3804;1752;3891;330;-1127;-2562;141
1908747;2;20;2;3804;1769;3883;171;-1206;-2464;75
1908757;2;20;2;3804;1792;3907;134;-1382;-2270;-28
1908767;2;20;2;3804;1809;3946;237;-1515;-2075;-122
1908777;2;20;2;3804;1810;3971;443;-1478;-1986;-188
1908787;2;20;2;3804;1835;3966;596;-1393;-1994;-225
1908797;2;20;2;3804;1882;3959;660;-1506;-2056;-231
1908807;2;20;2;3804;1944;3901;690;-1730;-2137;-195
1908817;2;20;2;3804;1981;3850;756;-2021;-2183;-155
1908827;2;20;2;3804;2044;3822;809;-2286;-2235;-114
1908837;2;20;2;3804;2081;3794;876;-2443;-2358;-91
1908847;2;20;2;3804;2102;3768;849;-2416;-2513;-90
1908857;2;20;2;3804;2052;3790;831;-2332;-2502;-186
1908867;2;20;2;3804;2013;3925;787;-1946;-2297;-387
1908877;2;20;2;3804;2060;4057;727;-1263;-2005;-714
1908887;2;20;2;3804;2118;4218;675;-588;-1857;-1120
1908897;2;20;2;3804;1987;4366;553;-473;-1995;-1472
1908907;2;20;2;3804;1664;4474;283;-1064;-2492;-1628
1908917;2;20;2;3804;1278;4690;40;-1653;-3181;-1450
1908927;2;20;2;3805;972;4855;-268;-1824;-3722;-948
1908937;2;20;2;3805;771;4938;-479;-1520;-3573;-384
1908947;2;20;2;3805;733;4737;-450;-1062;-2868;-126
1908957;2;20;2;3805;891;4458;-191;-712;-2112;-15
1908967;2;20;2;3805;1154;4258;275;-214;-1793;2
1908977;2;20;2;3805;1346;4070;487;300;-2015;3
1908987;2;20;2;3805;1419;3819;291;568;-2539;-59
1908997;2;20;2;3805;1385;3535;-42;486;-2996;-230
1909007;2;20;2;3805;1219;3407;-323;321;-3248;-464
1909017;2;20;2;3805;999;3327;-480;350;-3305;-635
1909027;2;20;2;3805;725;3252;-579;454;-3248;-656
1909037;2;20;2;3805;611;3264;-583;504;-3150;-608
1909047;2;20;2;3805;561;3322;-449;754;-3008;-513
1909057;2;20;2;3805;717;3380;-325;1164;-2762;-493
1909067;2;20;2;3805;993;3543;-190;1282;-2414;-741
1909077;2;20;2;3805;1277;3717;35;1085;-2196;-1092
1909087;2;20;2;3805;1410;3829;128;837;-2130;-1517
1909097;2;20;2;3805;1428;3922;170;490;-2297;-1886
1909107;2;20;2;3805;1368;3967;103;225;-2571;-2144
1909117;2;20;2;3805;1237;4039;6;9;-2713;-2293
1909127;2;20;2;3805;1170;4017;-191;-291;-2760;-2326
1909137;2;20;2;3805;850;4386;-291;-839;-2514;-2140
1909147;2;20;2;3805;843;4435;-170;-418;-2126;-1826
1909157;2;20;2;3805;812;4401;-251;-114;-1742;-1449
1909167;2;20;2;3805;806;4375;-200;-152;-1363;-1101
1909177;2;20;2;3805;765;4300;-66;-118;-962;-783
1909187;2;20;2;3805;817;4180;-61;-130;-607;-554
1909197;2;20;2;3805;892;4071;-27;-286;-355;-434
1909207;2;20;2;3805;912;3994;55;-459;-228;-368
1909217;2;20;2;3805;904;3914;90;-576;-116;-329
1909227;2;20;2;3805;898;3857;124;-643;13;-329
1909237;2;20;2;3805;883;3833;262;-659;78;-306
1909247;2;20;2;3805;870;3826;365;-532;14;-267
1909257;2;20;2;3805;879;3788;410;-414;-159;-209
1909267;2;20;2;3805;884;3768;355;-419;-339;-186
1909277;2;20;2;3805;936;3796;322;-364;-487;-174
1909287;2;20;2;3805;951;3854;296;-189;-603;-152
1909297;2;20;2;3805;945;3914;286;-159;-708;-141
1909307;2;20;2;3805;920;3954;306;-267;-818;-143
1909317;2;20;2;3805;899;3994;230;-397;-825;-122
1909327;2;20;2;3805;934;3995;254;-435;-779;-76
1909337;2;20;2;3805;970;3980;259;-438;-802;8
1909347;2;20;2;3805;968;3956;272;-500;-765;68
1909357;2;20;2;3805;981;3970;283;-595;-600;95
1909367;2;20;2;3805;1000;3982;360;-603;-358;159
1909377;2;20;2;3805;1048;4012;426;-497;-286;196
1909387;2;20;2;3805;1119;4006;501;-311;-333;253
1909397;2;20;2;3805;1178;3968;493;-19;-397;338
1909407;2;20;2;3805;1155;3911;462;113;-325;327
1909417;2;20;2;3805;1139;3871;436;81;-153;323
1909427;2;20;2;3806;1119;3823;405;70;113;303
1909437;2;20;2;3806;1069;3809;376;-23;492;314
1909447;2;20;2;3806;1010;3822;470;-112;861;375
1909457;2;20;2;3806;971;3854;485;-130;1072;501
1909467;2;20;2;3806;887;3900;452;-80;1306;651
1909477;2;20;2;3806;871;3951;351;-62;1615;718
1909487;2;20;2;3806;790;4059;313;-210;1926;708
1909497;2;20;2;3806;662;4167;386;-333;2118;623
1909507;2;20;2;3806;539;4243;508;-128;2141;635
1909517;2;20;2;3806;358;4247;429;212;2086;691
1909527;2;20;2;3806;263;4204;268;430;2072;822
1909537;2;20;2;3806;229;4143;79;486;2189;964
1909547;2;20;2;3806;248;4197;8;586;2474;1134
1909557;2;20;2;3806;373;4177;17;1022;2909;1227
1909567;2;20;2;3806;702;4190;35;1531;3510;1035
1909577;2;20;2;3806;1281;4413;392;2196;4159;460
1909587;2;20;2;3806;1708;4631;793;2866;4301;-167
1909597;2;20;2;3806;1778;4745;799;2618;3517;-627
1909607;2;20;2;3806;1683;4695;374;1461;2291;-976
1909617;2;20;2;3806;1332;4730;-249;-145;1096;-1073
1909627;2;20;2;3806;1077;4886;-748;-1632;299;-908
1909637;2;20;2;3806;694;5399;-834;-2129;163;-484
1909647;2;20;2;3806;584;5413;-813;-1397;623;-79
1909657;2;20;2;3806;615;5287;-928;-317;1701;61
1909667;2;20;2;3806;801;4861;-1002;277;2936;224
1909677;2;20;2;3806;1120;4325;-884;-16;3890;376
1909687;2;20;2;3806;1344;3972;-387;-790;4401;466
1909697;2;20;2;3806;1493;3819;473;-518;4600;524
1909707;2;20;2;3806;1586;3705;753;752;4439;796
1909717;2;20;2;3806;1757;3283;527;1225;3941;1008
1909727;2;20;2;3806;1854;3049;226;884;3500;1049
1909737;2;20;2;3806;1941;3076;43;528;3266;969
1909747;2;20;2;3806;1943;3168;-26;480;3151;882
1909757;2;20;2;3806;1926;3298;-122;788;3043;740
1909767;2;20;2;3806;1843;3400;-352;1119;2919;630
1909777;2;20;2;3806;1753;3503;-548;1325;2913;506
1909787;2;20;2;3806;1681;3639;-583;1495;2904;366
1909797;2;20;2;3806;1572;3771;-621;1716;2866;290
1909807;2;20;2;3806;1472;3784;-715;1919;2961;261
1909817;2;20;2;3806;1431;3837;-732;2020;3294;211
1909827;2;20;2;3806;1519;3831;-606;2047;3617;224
1909837;2;20;2;3806;1630;3829;-437;2103;3740;269
1909847;2;20;2;3806;1684;3829;-329;2413;3600;339
1909857;2;20;2;3806;1858;3736;-321;2770;3341;393
1909867;2;20;2;3806;1885;3714;-367;3194;3114;453
1909877;2;20;2;3806;1866;3672;-469;3408;2834;442
1909887;2;20;2;3806;1797;3650;-569;3480;2552;472
1909897;2;20;2;3806;1818;3571;-678;3562;2321;509
1909907;2;20;2;3806;1760;3514;-848;3662;2360;453
1909917;2;20;2;3806;1685;3413;-904;3735;2476;400
1909927;2;20;2;3807;1664;3301;-950;3622;2574;329
1909937;2;20;2;3807;1601;3230;-946;3411;2740;210
1909947;2;20;2;3807;1576;3190;-850;3422;2998;52
1909957;2;20;2;3807;1560;3142;-702;3609;2972;-114
1909967;2;20;2;3807;1462;3172;-505;3703;2533;-160
1909977;2;20;2;3807;1334;3188;-447;4035;1883;-139
1909987;2;20;2;3807;1119;3211;-546;4624;1158;-34
1909997;2;20;2;3807;899;3198;-666;5264;163;188
1910007;2;20;2;3807;644;3025;-1084;5795;-872;548
1910017;2;20;2;3807;344;2809;-1558;5859;-1483;841
1910027;2;20;2;3807;96;2523;-2031;5261;-1769;1116
1910037;2;20;2;3807;-70;2275;-2419;4086;-1641;1235
1910047;2;20;2;3807;-208;2082;-2696;2729;-1089;1205
1910057;2;20;2;3807;-198;1850;-2715;1092;-4;989
1910067;2;20;2;3807;-112;1659;-2370;-812;1114;811
1910077;2;20;2;3807;39;1581;-1781;-2967;2120;562
1910087;2;20;2;3807;264;2312;1690;-1204;3950;-193
1910097;2;20;2;3807;403;3438;3465;7183;4154;-397
1910107;2;20;2;3807;1160;3059;1726;6836;1501;-173
1910117;2;20;2;3807;2086;2617;793;5906;-751;-821
1910127;2;20;2;3807;2056;3104;-379;6234;-1364;-1924
1910137;2;20;2;3807;1532;4091;-1262;5163;-1047;-2411
1910147;2;20;2;3807;649;5280;-1534;4334;-1437;-1557
1910157;2;20;2;3807;163;5735;-2172;4684;-1744;211
1910167;2;20;2;3807;529;5348;-3189;4071;-449;1051
1910177;2;20;2;3807;1018;5052;-2809;1581;1841;357
1910187;2;20;2;3807;1318;4542;-1499;316;2617;-445
1910197;2;20;2;3807;1168;4047;-398;1839;2233;-1136
1910207;2;20;2;3807;605;3341;72;3646;1109;-1305
1910217;2;20;2;3807;125;2407;154;4829;46;-868
1910227;2;20;2;3807;-55;1763;32;5783;-215;-348
1910237;2;20;2;3807;83;1257;21;6821;270;198
1910247;2;20;2;3807;248;1054;-325;7923;1270;579
1910257;2;20;2;3807;298;610;-680;8214;2534;773
1910267;2;20;2;3807;442;535;-614;8190;3492;590
1910277;2;20;2;3807;522;599;-536;8902;3721;391
1910287;2;20;2;3807;59;322;-1204;9330;2814;610
1910297;2;20;2;3807;-502;-41;-1782;8589;1649;910
1910307;2;20;2;3807;-727;136;-1660;8420;1094;1362
1910317;2;20;2;3807;-639;725;-885;8895;1018;1972
1910327;2;20;2;3807;-139;1695;264;9206;257;2961
1910337;2;20;2;3807;923;2157;497;8602;-1087;4000
1910347;2;20;2;3807;1982;2623;93;7667;-1664;4093
1910357;2;20;2;3807;2825;3001;-551;6597;-1320;3152
1910367;2;20;2;3807;2954;3304;-1132;4574;-631;1703
1910377;2;20;2;3807;2461;3363;-1385;2085;-185;293
1910387;2;20;2;3807;1640;3358;-1268;866;-277;-497
1910397;2;20;2;3807;1015;3314;-1313;1511;-433;-762
1910407;2;20;2;3807;717;3135;-1434;2774;-235;-949
1910417;2;20;2;3807;602;2849;-1574;3669;187;-1040
1910427;2;20;2;3808;478;2787;-1585;3861;224;-770
1910437;2;20;2;3808;885;2875;-1823;3935;-72;-189
1910447;2;20;2;3808;1641;3007;-1992;4224;-315;130
1910457;2;20;2;3808;2285;3121;-2243;4171;-640;104
1910467;2;20;2;3808;2437;3056;-2609;3730;-1075;-240
1910477;2;20;2;3808;2232;2940;-3044;2936;-988;-792
1910487;2;20;2;3808;1846;3092;-3008;2086;-113;-1298
1910497;2;20;2;3808;1479;3269;-2584;1103;920;-1718
1910507;2;20;2;3808;948;3812;-2220;387;1237;-1601
1910517;2;20;2;3808;544;4278;-2363;289;682;-1200
1910527;2;20;2;3808;315;4571;-3007;366;-99;-509
1910537;2;20;2;3808;244;5117;-3511;1901;-482;-319
1910547;2;20;2;3808;298;5362;-4594;3105;-1113;131
1910557;2;20;2;3808;131;5638;-5436;2704;-1590;1027
1910567;2;20;2;3808;142;5964;-6089;1496;-1289;1829
1910577;2;20;2;3808;182;5997;-6161;-216;-201;2426
1910587;2;20;2;3808;657;5826;-5781;-1647;1357;2641
1910597;2;20;2;3808;520;5969;-4726;-2586;2729;2912
1910607;2;20;2;3808;433;5602;-4018;-2706;3564;2940
1910617;2;20;2;3808;226;5506;-3576;-2145;4059;3222
1910627;2;20;2;3808;202;5261;-3587;-877;4517;3641
1910637;2;20;2;3808;369;5086;-3857;147;4945;3875
1910647;2;20;2;3808;479;4925;-3953;735;5058;4059
1910657;2;20;2;3808;528;4655;-4478;824;5043;3898
1910667;2;20;2;3808;291;4428;-4668;289;5599;3347
1910677;2;20;2;3808;134;4421;-4387;-187;6529;2732
1910687;2;20;2;3808;149;4604;-3510;-50;7406;2403
1910697;2;20;2;3808;1013;4077;-2858;1195;7033;1986
1910707;2;20;2;3808;1959;3309;-3848;1237;6916;765
1910717;2;20;2;3808;2134;3365;-3222;-987;6335;-668
1910727;2;20;2;3808;1709;3988;-2815;-3350;3941;-925
1910737;2;20;2;3808;1281;3854;-2581;-4584;821;244
1910747;2;20;2;3808;1389;2970;-3693;-4541;-1692;1228
1910757;2;20;2;3808;472;3128;-4548;-6883;-800;3876
1910767;2;20;2;3808;1260;1728;-4535;-10355;1538;6124
1910777;2;20;2;3808;4441;344;-2160;-10409;5129;7562
1910787;2;20;2;3808;6781;1600;-564;-5423;5707;6041
1910797;2;20;2;3808;6607;2738;-1075;-5639;1671;7121
1910807;2;20;2;3808;6917;2963;-1329;-7105;-4526;8064
1910817;2;20;2;3808;6858;4762;-1549;-2529;-9254;8929
1910827;2;20;2;3808;5176;5290;-3487;6680;-12445;10044
1910837;2;20;2;3808;3552;3793;-6538;12314;-9467;12877
1910847;2;20;2;3808;2504;2158;-8227;11090;-4602;16868
1910857;2;20;2;3808;3448;-1268;-9412;3489;293;22100
1910867;2;20;2;3808;7318;-5519;-8407;-14304;9975;22460
1910877;2;20;2;3808;9601;-4800;6390;-25430;17419;17982
1910887;2;20;2;3808;7738;-532;8628;6466;13492;13078
1910897;2;20;2;3808;5922;-2344;2384;-411;3865;10305
1910907;2;20;2;3808;3550;-4852;270;1651;1139;7736
1910917;2;20;2;3808;1993;-5354;-2539;6621;4615;6202
1910927;2;20;2;3809;1304;-3189;-3253;6179;9368;5285
1910937;2;20;2;3809;1585;-1784;-1842;2378;12163;6051
1910947;2;20;2;3809;2835;-449;75;736;12935;6666
1910957;2;20;2;3809;4600;1164;691;304;12589;6484
1910967;2;20;2;3809;6465;3288;1032;-1290;10730;5826
1910977;2;20;2;3809;7746;4695;1727;-2724;8035;4983
1910987;2;20;2;3809;7525;5751;2305;-2852;4659;3991
1910997;2;20;2;3809;5865;6290;2509;-1340;1135;4722
1911007;2;20;2;3809;3896;5007;920;978;-2826;8646
1911017;2;20;2;3809;3095;2207;-1234;727;-5407;12139
1911027;2;20;2;3809;2715;-87;-3254;-1491;-4982;13690
1911037;2;20;2;3809;2837;-2338;-4607;-4435;-1329;13899
1911047;2;20;2;3809;3557;-4389;-4883;-7909;3741;12325
1911057;2;20;2;3809;4038;-4723;-3064;-12536;8754;9782
1911067;2;20;2;3809;4254;-2989;4999;-6076;12060;7328
1911077;2;20;2;3809;3752;-2094;2513;2932;9866;7426
1911087;2;20;2;3809;3954;-2700;1826;-1365;5657;8386
1911097;2;20;2;3809;3860;-2560;792;-1824;3365;9229
1911107;2;20;2;3809;3613;-1858;-539;-1055;3412;9785
1911117;2;20;2;3809;3721;-1571;-1245;-847;4287;9546
1911127;2;20;2;3809;3978;-960;-1534;-1725;5729;8542
1911137;2;20;2;3809;3837;80;-671;-2354;7116;7238
1911147;2;20;2;3809;3759;834;425;-1775;7333;6253
1911157;2;20;2;3809;3675;892;596;-1288;5602;6456
1911167;2;20;2;3809;3620;434;93;-2870;2673;7014
1911177;2;20;2;3809;3942;120;-331;-5000;-42;7580
1911187;2;20;2;3809;4931;-494;-143;-6276;-1815;7451
1911197;2;20;2;3809;6342;-1138;206;-7232;-4229;6915
1911207;2;20;2;3809;7550;-2108;-491;-9887;-9015;6773
1911217;2;20;2;3809;7500;-3163;-1393;-12282;-13840;5790
1911227;2;20;2;3809;6214;-3431;-1594;-10122;-15988;2918
1911237;2;20;2;3809;6141;-5266;-2179;-1312;-15363;-1676
1911247;2;20;2;3809;5585;-8204;-2298;4610;-11383;-2718
1911257;2;20;2;3809;3538;-7503;-1652;5941;-3287;-2980
1911267;2;20;2;3809;2808;-6078;186;3245;2969;-628
1911277;2;20;2;3809;3904;-3956;1090;3120;4689;1052
1911287;2;20;2;3809;4996;-2351;-350;2130;5606;1185
1911297;2;20;2;3809;5195;-1188;-1098;-1363;8171;-39
1911307;2;20;2;3809;4801;-189;191;-2407;9146;-1034
1911317;2;20;2;3809;4551;567;724;-1082;7307;-1616
1911327;2;20;2;3809;3884;1512;676;-1873;3930;-1974
1911337;2;20;2;3809;2815;2365;801;-3987;542;-1139
1911347;2;20;2;3809;2210;2613;1029;-4100;-1397;-217
1911357;2;20;2;3809;2310;1954;667;-2564;-2479;797
1911367;2;20;2;3809;2744;1098;-227;-2250;-3451;1330
1911377;2;20;2;3809;3256;183;-965;-2837;-4403;1389
1911387;2;20;2;3809;3827;-718;-1483;-3021;-4557;916
1911397;2;20;2;3809;4188;-1220;-1779;-2602;-3728;93
1911407;2;20;2;3809;4453;-1614;-1234;-1565;-2499;-542
1911417;2;20;2;3809;4593;-2152;-201;-647;-2235;-925
1911427;2;20;2;3810;4402;-2191;250;-221;-3221;-689
1911437;2;20;2;3810;4408;-2507;293;-1199;-5010;236
1911447;2;20;2;3810;4497;-2700;-75;-2210;-6856;1254
1911457;2;20;2;3810;4519;-2777;-1013;-2346;-8082;1999
1911467;2;20;2;3810;4561;-2891;-2114;-1800;-8212;2395
1911477;2;20;2;3810;4682;-3144;-3533;-1128;-7162;1777
1911487;2;20;2;3810;4768;-2959;-4425;-686;-5175;858
1911497;2;20;2;3810;4674;-2690;-4637;241;-2262;-291
1911507;2;20;2;3810;4676;-2381;-4073;1270;489;-1415
1911517;2;20;2;3810;4832;-1820;-3036;2118;2288;-2167
1911527;2;20;2;3810;5032;-1219;-1940;2523;3314;-2687
1911537;2;20;2;3810;4955;-1140;-1076;2466;4005;-2791
1911547;2;20;2;3810;4737;-1190;-852;2530;3937;-2836
1911557;2;20;2;3810;4543;-1230;-1320;2724;3761;-2551
1911567;2;20;2;3810;4290;-1193;-1808;3002;4499;-2580
1911577;2;20;2;3810;4082;-878;-2116;3280;6111;-2933
1911587;2;20;2;3810;3966;-680;-2159;3394;8008;-3384
1911597;2;20;2;3810;3798;-556;-1954;2564;9072;-3344
1911607;2;20;2;3810;3705;-454;-1473;1640;9082;-3424
1911617;2;20;2;3810;3647;-617;-883;1733;8861;-3701
1911627;2;20;2;3810;3541;-876;-531;2272;8592;-4478
1911637;2;20;2;3810;3359;-915;-420;3379;7771;-5074
1911647;2;20;2;3810;3290;-1303;-886;3104;6480;-5599
1911657;2;20;2;3810;2929;-1454;-1267;1477;6063;-6475
1911667;2;20;2;3810;2454;-1323;-696;502;6755;-7148
1911677;2;20;2;3810;2396;-1135;602;1235;7567;-7455
1911687;2;20;2;3810;2880;-1027;1322;2595;7091;-7335
1911697;2;20;2;3810;3647;-1176;1266;2383;4623;-6693
1911707;2;20;2;3810;4436;-1432;803;1293;1283;-5763
1911717;2;20;2;3810;5266;-1682;335;700;-1103;-5189
1911727;2;20;2;3810;5861;-1623;-552;-146;-2079;-5341
1911737;2;20;2;3810;6528;-1698;-925;-1386;-1985;-5832
1911747;2;20;2;3810;6799;-961;-509;-1186;-1474;-6889
1911757;2;20;2;3810;6746;-151;-289;229;-1278;-7408
1911767;2;20;2;3810;6807;-23;-531;1101;-1044;-7943
1911777;2;20;2;3810;6532;405;-1211;915;-343;-9157
1911787;2;20;2;3810;5872;706;-1280;927;327;-9859
1911797;2;20;2;3810;5362;439;-1212;2367;1028;-9772
1911807;2;20;2;3810;5254;249;-1399;3128;2193;-9903
1911817;2;20;2;3810;4892;389;-1240;2795;3984;-10420
1911827;2;20;2;3810;4373;503;-37;3387;5729;-10670
1911837;2;20;2;3810;3827;611;636;4499;6170;-10346
1911847;2;20;2;3810;3420;675;665;4528;5631;-9606
1911857;2;20;2;3810;2776;861;704;4209;4844;-8589
1911867;2;20;2;3810;2382;731;446;4271;4033;-7710
1911877;2;20;2;3810;2067;665;253;4139;3519;-7090
1911887;2;20;2;3810;2046;488;186;4016;3312;-6954
1911897;2;20;2;3810;2299;500;291;4417;3410;-7249
1911907;2;20;2;3810;2804;768;388;4901;3607;-7802
1911917;2;20;2;3810;3202;1123;685;5065;3616;-8363
1911927;2;20;2;3811;3359;1486;931;4786;3105;-8495
1911937;2;20;2;3811;3469;1754;898;4377;2247;-8431
1911947;2;20;2;3811;3376;1960;796;4128;1712;-8304
1911957;2;20;2;3811;3221;2176;738;3905;1496;-8143
1911967;2;20;2;3811;3159;2365;729;3450;1163;-7884
1911977;2;20;2;3811;2989;2548;674;3092;814;-7452
1911987;2;20;2;3811;2656;2593;763;3105;642;-6774
1911997;2;20;2;3811;2623;2487;743;3090;522;-6031
1912007;2;20;2;3811;2829;2341;653;3084;568;-5412
1912017;2;20;2;3811;2944;2250;538;3049;689;-4983
1912027;2;20;2;3811;2970;2193;412;3089;924;-4736
1912037;2;20;2;3811;3002;2246;366;3136;1463;-4754
1912047;2;20;2;3811;2983;2375;617;3330;2058;-4795
1912057;2;20;2;3811;2923;2497;622;3528;2414;-4697
1912067;2;20;2;3811;2978;2441;452;3412;2689;-4730
1912077;2;20;2;3811;2947;2604;405;3201;2978;-4924
1912087;2;20;2;3811;2789;2837;572;3318;3257;-5007
1912097;2;20;2;3811;2773;3042;768;3400;3058;-4965
1912107;2;20;2;3811;2788;3267;799;3221;2063;-4635
1912117;2;20;2;3811;2735;3262;613;3120;867;-4189
1912127;2;20;2;3811;2596;3082;29;3158;279;-4022
1912137;2;20;2;3811;2496;2868;-667;3181;830;-4258
1912147;2;20;2;3811;2732;2797;-586;3213;1849;-4541
1912157;2;20;2;3811;2856;3102;-8;3138;1925;-4465
1912167;2;20;2;3811;2948;3261;297;3242;1216;-4072
1912177;2;20;2;3811;2951;3315;192;3461;562;-3865
1912187;2;20;2;3811;2957;3413;31;3506;79;-3861
1912197;2;20;2;3811;2891;3414;-22;3404;-254;-3951
1912207;2;20;2;3811;2644;3543;63;3099;-875;-3918
1912217;2;20;2;3811;2389;3696;183;2873;-1559;-3716
1912227;2;20;2;3811;2336;3838;24;3106;-2084;-3530
1912237;2;20;2;3811;2100;4157;-322;3325;-2614;-3112
1912247;2;20;2;3811;2032;4207;-617;3318;-3158;-2468
1912257;2;20;2;3811;2136;4112;-1112;3455;-3218;-2228
1912267;2;20;2;3811;2312;4077;-1479;3806;-2591;-2584
1912277;2;20;2;3811;2491;4002;-1369;4129;-1843;-3040
1912287;2;20;2;3811;2679;3994;-957;4383;-1551;-3483
1912297;2;20;2;3811;2739;3832;-506;4699;-1539;-3888
1912307;2;20;2;3811;2658;3716;-215;5017;-1784;-4283
1912317;2;20;2;3811;2415;3380;-17;5058;-2365;-4331
1912327;2;20;2;3811;2243;3121;89;4943;-3002;-4345
1912337;2;20;2;3811;2164;2917;170;4719;-3593;-4128
1912347;2;20;2;3811;2144;2824;121;4440;-4114;-3776
1912357;2;20;2;3811;2231;2747;-60;4267;-4423;-3521
1912367;2;20;2;3811;2375;2680;-319;4390;-4314;-3656
1912377;2;20;2;3811;2437;2763;-485;4747;-3833;-3936
1912387;2;20;2;3811;2529;2913;-483;5163;-3310;-4236
1912397;2;20;2;3811;2454;3174;-439;5273;-3237;-4349
1912407;2;20;2;3811;2249;3448;-477;5065;-3347;-4316
1912417;2;20;2;3811;2052;3810;-501;4788;-3526;-4221
1912427;2;20;2;3812;1948;4119;-523;4353;-3765;-4044
1912437;2;20;2;3812;1958;4135;-548;4082;-4114;-3589
1912447;2;20;2;3812;1930;3958;-511;3980;-4285;-3169
1912457;2;20;2;3812;1870;3738;-402;3937;-4154;-2884
1912467;2;20;2;3812;1776;3474;-160;4344;-3762;-2684
1912477;2;20;2;3812;1922;3228;-374;4679;-3598;-2439
1912487;2;20;2;3812;2251;2985;-708;4533;-3317;-2058
1912497;2;20;2;3812;2530;3099;-925;4148;-3042;-1859
1912507;2;20;2;3812;2772;3393;-1176;4224;-3087;-1715
1912517;2;20;2;3812;2855;3705;-1054;5091;-2927;-1664
1912527;2;20;2;3812;2888;3844;-1169;6258;-2917;-1693
1912537;2;20;2;3812;2950;3878;-1818;5970;-3486;-1794
1912547;2;20;2;3812;2837;3723;-2630;4394;-4190;-1580
1912557;2;20;2;3812;2693;3557;-3209;2510;-4378;-1531
1912567;2;20;2;3812;2469;3665;-3558;1556;-3904;-1885
1912577;2;20;2;3812;2449;3699;-3897;765;-3234;-2322
1912587;2;20;2;3812;2563;3670;-3887;-377;-2989;-2401
1912597;2;20;2;3812;2642;3756;-3569;-1024;-2826;-2314
1912607;2;20;2;3812;2671;3527;-3249;-745;-2587;-2161
1912617;2;20;2;3812;2751;3092;-2911;-795;-2172;-1773
1912627;2;20;2;3812;2672;2926;-2602;-783;-1754;-1352
1912637;2;20;2;3812;2545;2928;-2462;-1301;-1340;-899
1912647;2;20;2;3812;2286;3185;-2464;-1872;-641;-825
1912657;2;20;2;3812;1921;3411;-2335;-2118;194;-706
1912667;2;20;2;3812;1777;3315;-2232;-1979;1008;-402
1912677;2;20;2;3812;1886;3236;-2112;-1983;1682;-210
1912687;2;20;2;3812;2081;3313;-1970;-2246;2010;-55
1912697;2;20;2;3812;2320;3214;-1997;-2294;1916;155
1912707;2;20;2;3812;2464;3048;-2125;-1918;1747;123
1912717;2;20;2;3812;2398;2811;-2353;-1386;1892;-112
1912727;2;20;2;3812;2074;2833;-2483;-1400;2272;-432
1912737;2;20;2;3812;1878;2836;-2413;-2029;2391;-748
1912747;2;20;2;3812;1794;3028;-2225;-2596;2344;-908
1912757;2;20;2;3812;1847;3139;-2100;-2672;2203;-1142
1912767;2;20;2;3812;1848;3062;-2143;-2151;2067;-1325
1912777;2;20;2;3812;1865;2880;-2230;-1622;2103;-1541
1912787;2;20;2;3812;1802;2814;-2170;-1621;2092;-1585
1912797;2;20;2;3812;1703;2810;-2072;-2056;2153;-1573
1912807;2;20;2;3812;1504;3011;-1786;-2533;2297;-1763
1912817;2;20;2;3812;1259;3126;-1507;-2539;2227;-1730
1912827;2;20;2;3812;1061;3131;-1511;-1979;2174;-1551
1912837;2;20;2;3812;888;3127;-1606;-1516;2358;-1370
1912847;2;20;2;3812;714;3150;-1592;-1505;2647;-1157
1912857;2;20;2;3812;606;3267;-1615;-1690;2935;-1086
1912867;2;20;2;3812;457;3369;-1665;-1918;3102;-1072
1912877;2;20;2;3812;235;3478;-1792;-1671;2980;-891
1912887;2;20;2;3812;200;3349;-2212;-1274;2785;-778
1912897;2;20;2;3812;361;3474;-2063;-1387;2565;-1030
1912907;2;20;2;3812;558;3589;-1353;-307;2280;-1537
1912917;2;20;2;3812;579;3723;-1201;2546;1866;-2513
1912927;2;20;2;3813;700;3836;-1727;2575;1060;-3305
1912937;2;20;2;3813;860;3693;-1854;1566;219;-3851
1912947;2;20;2;3813;794;3812;-2137;664;-450;-4510
1912957;2;20;2;3813;759;3965;-2394;137;-870;-5145
1912967;2;20;2;3813;780;4281;-2577;-407;-1301;-5613
1912977;2;20;2;3813;799;4654;-2800;-668;-2122;-5896
1912987;2;20;2;3813;695;5002;-3011;-560;-2899;-5806
1912997;2;20;2;3813;761;5320;-3341;-321;-3278;-5681
1913007;2;20;2;3813;956;5710;-3395;99;-3145;-5672
1913017;2;20;2;3813;1246;5967;-3238;598;-2995;-5262
1913027;2;20;2;3813;1598;6116;-3115;487;-2835;-4845
1913037;2;20;2;3813;2011;5939;-2716;450;-2590;-4675
1913047;2;20;2;3813;2162;5928;-2521;1462;-2189;-4598
1913057;2;20;2;3813;2176;5586;-2589;2295;-1756;-4665
1913067;2;20;2;3813;2043;5295;-2623;2536;-1230;-4802
1913077;2;20;2;3813;1790;5139;-2522;2580;-841;-4824
1913087;2;20;2;3813;1545;4895;-2562;2656;-553;-4771
1913097;2;20;2;3813;1290;4597;-2556;2909;-334;-4682
1913107;2;20;2;3813;1079;4239;-2803;3393;-2;-4527
1913117;2;20;2;3813;799;4165;-2961;3741;724;-4408
1913127;2;20;2;3813;563;4337;-2990;3635;1554;-4177
1913137;2;20;2;3813;463;4665;-2790;3156;2232;-3903
1913147;2;20;2;3813;522;4877;-2464;2805;2600;-3708
1913157;2;20;2;3813;671;4820;-2469;2932;2901;-3646
1913167;2;20;2;3813;762;4744;-2401;2856;3329;-3795
1913177;2;20;2;3813;796;4657;-2310;2671;3586;-4060
1913187;2;20;2;3813;750;4516;-2143;2484;3615;-4199
1913197;2;20;2;3813;556;4397;-2131;1924;3603;-4230
1913207;2;20;2;3813;307;4294;-2119;1152;3712;-4173
1913217;2;20;2;3813;234;4194;-2122;704;3955;-4137
1913227;2;20;2;3813;187;4019;-2125;677;4298;-4073
1913237;2;20;2;3813;204;3935;-2144;662;4837;-4103
1913247;2;20;2;3813;304;3939;-2154;125;5157;-4202
1913257;2;20;2;3813;402;3791;-2270;-685;5349;-4222
1913267;2;20;2;3813;438;3718;-2267;-1409;5596;-4256
1913277;2;20;2;3813;420;3785;-1983;-2057;5695;-4218
1913287;2;20;2;3813;334;3833;-1720;-2462;5515;-4006
1913297;2;20;2;3813;237;3727;-1594;-2681;5389;-3779
1913307;2;20;2;3813;204;3589;-1550;-2762;5469;-3650
1913317;2;20;2;3813;162;3467;-1431;-2984;5567;-3560
1913327;2;20;2;3813;206;3361;-1510;-3226;5618;-3495
1913337;2;20;2;3813;184;3208;-1588;-3263;5771;-3408
1913347;2;20;2;3813;261;2956;-1852;-3413;6043;-3447
1913357;2;20;2;3813;177;2810;-1974;-3472;6436;-3477
1913367;2;20;2;3813;126;2723;-1867;-3395;6858;-3469
1913377;2;20;2;3813;-80;2848;-1630;-3337;6939;-3164
1913387;2;20;2;3813;-246;3003;-1425;-3414;6724;-2680
1913397;2;20;2;3813;-335;3031;-1245;-2965;6704;-2198
1913407;2;20;2;3813;-288;3065;-1128;-2491;6926;-1864
1913417;2;20;2;3813;-263;3128;-996;-2604;7032;-1668
1913427;2;20;2;3814;-223;3067;-897;-2870;6927;-1467
1913437;2;20;2;3814;-130;2896;-1132;-2837;6823;-1332
1913447;2;20;2;3814;-97;2733;-1350;-2753;6952;-1491
1913457;2;20;2;3814;-239;2713;-1229;-2873;7018;-1564
1913467;2;20;2;3814;-375;2769;-1073;-2938;6668;-1418
1913477;2;20;2;3814;-449;2866;-1090;-2737;6107;-1103
1913487;2;20;2;3814;-518;2984;-1139;-2575;5529;-757
1913497;2;20;2;3814;-517;3109;-1050;-2794;4755;-396
1913507;2;20;2;3814;-326;3102;-952;-3096;3673;34
1913517;2;20;2;3814;-338;2907;-1426;-3098;2979;218
1913527;2;20;2;3814;-301;2367;-2060;-2696;4283;-474
1913537;2;20;2;3814;-277;2353;-1467;-2138;5946;-1597
1913547;2;20;2;3814;-346;2672;-670;-1876;6097;-1746
1913557;2;20;2;3814;-221;2661;-461;-1913;5318;-1354
1913567;2;20;2;3814;30;2403;-788;-1785;4902;-1198
1913577;2;20;2;3814;188;2347;-1034;-1680;5161;-1458
1913587;2;20;2;3814;155;2515;-818;-1503;5427;-1711
1913597;2;20;2;3814;39;2772;-523;-1391;5220;-1760
1913607;2;20;2;3814;-76;2998;-339;-1279;4811;-1682
1913617;2;20;2;3814;-131;3133;-464;-1150;4330;-1449
1913627;2;20;2;3814;-52;3132;-672;-1053;4085;-1240
1913637;2;20;2;3814;28;3123;-884;-944;3871;-974
1913647;2;20;2;3814;111;3031;-1257;-678;3862;-772
1913657;2;20;2;3814;197;2936;-1687;-336;4536;-898
1913667;2;20;2;3814;267;2950;-1674;-266;5655;-1306
1913677;2;20;2;3814;280;3273;-1136;-324;6093;-1386
1913687;2;20;2;3814;214;3356;-845;-526;5838;-1081
1913697;2;20;2;3814;56;3382;-773;-684;5516;-743
1913707;2;20;2;3814;-49;3333;-867;-762;5579;-612
1913717;2;20;2;3814;-164;3392;-930;-811;5969;-625
1913727;2;20;2;3814;-158;3466;-1044;-648;6478;-634
1913737;2;20;2;3814;-66;3628;-1035;-469;6977;-658
1913747;2;20;2;3814;-21;3893;-863;-106;7155;-652
1913757;2;20;2;3814;32;3881;-796;297;7126;-563
1913767;2;20;2;3814;72;3882;-828;394;7133;-581
1913777;2;20;2;3814;24;3991;-784;455;7243;-685
1913787;2;20;2;3814;27;3914;-703;719;7330;-857
1913797;2;20;2;3814;46;3747;-797;1163;7494;-1076
1913807;2;20;2;3814;23;3600;-929;1528;8047;-1448
1913817;2;20;2;3814;3;3496;-956;1739;9025;-2033
1913827;2;20;2;3814;28;3524;-761;1916;10087;-2690
1913837;2;20;2;3814;13;3735;-489;2106;10886;-3126
1913847;2;20;2;3814;-26;3874;-243;2208;11124;-3236
1913857;2;20;2;3814;-82;3910;-373;1988;11007;-3226
1913867;2;20;2;3814;-301;4040;-639;1246;10931;-3112
1913877;2;20;2;3814;-458;4122;-767;467;10878;-2826
1913887;2;20;2;3814;-580;4275;-782;203;10632;-2468
1913897;2;20;2;3814;-590;4143;-1283;336;9501;-1618
1913907;2;20;2;3814;-567;3771;-2003;773;8554;-1227
1913917;2;20;2;3814;-759;3608;-2412;1176;8243;-936
1913927;2;20;2;3815;-681;3465;-2533;1099;7776;-798
1913937;2;20;2;3815;-426;3542;-2675;492;7258;-408
1913947;2;20;2;3815;178;3854;-2294;-341;7194;-486
1913957;2;20;2;3815;885;4566;-869;-82;7079;-724
1913967;2;20;2;3815;1436;5146;23;1552;5804;-761
1913977;2;20;2;3815;1846;5003;-629;2356;3825;-555
1913987;2;20;2;3815;1892;4527;-1482;2493;2355;-441
1913997;2;20;2;3815;1866;4081;-2197;2644;1684;-655
1914007;2;20;2;3815;1718;4035;-2520;2199;1732;-892
1914017;2;20;2;3815;1426;4445;-2402;1544;1850;-640
1914027;2;20;2;3815;1493;4472;-2286;1407;1557;104
1914037;2;20;2;3815;1643;4382;-2484;1330;1346;931
1914047;2;20;2;3815;1855;4200;-2663;1152;1465;1382
1914057;2;20;2;3815;2096;3997;-2690;1154;1499;1638
1914067;2;20;2;3815;2184;3702;-2820;1231;1285;1802
1914077;2;20;2;3815;2159;3373;-2810;1251;1118;1734
1914087;2;20;2;3815;2053;3184;-2671;1464;1342;1441
1914097;2;20;2;3815;1819;3108;-2251;1759;1966;1028
1914107;2;20;2;3815;1639;3122;-1621;2346;2411;807
1914117;2;20;2;3815;1587;3113;-1336;2974;2480;902
1914127;2;20;2;3815;1646;3014;-1368;3391;2465;1058
1914137;2;20;2;3815;1642;2961;-1472;3648;2543;1177
1914147;2;20;2;3815;1653;2951;-1532;3849;2616;1297
1914157;2;20;2;3815;1661;2968;-1716;3951;2646;1398
1914167;2;20;2;3815;1740;3000;-1878;3884;2752;1389
1914177;2;20;2;3815;1726;3043;-1876;3667;2753;1331
1914187;2;20;2;3815;1692;3166;-1793;3168;2519;1240
1914197;2;20;2;3815;1517;3262;-1745;2760;2217;1101
1914207;2;20;2;3815;1452;3234;-1891;2723;2058;894
1914217;2;20;2;3815;1366;3208;-2005;2767;2035;683
1914227;2;20;2;3815;1258;3173;-1930;2596;1899;620
1914237;2;20;2;3815;1221;3157;-1814;2246;1535;755
1914247;2;20;2;3815;1272;3161;-1766;1894;1106;1007
1914257;2;20;2;3815;1375;3121;-1819;1613;792;1191
1914267;2;20;2;3815;1460;3136;-1842;1411;607;1213
1914277;2;20;2;3815;1541;3140;-1827;1305;488;1168
1914287;2;20;2;3815;1603;3093;-1827;1290;450;1032
1914297;2;20;2;3815;1663;3091;-1917;1283;505;804
1914307;2;20;2;3815;1699;3095;-1979;1243;601;594
1914317;2;20;2;3815;1753;3102;-2022;1147;610;407
1914327;2;20;2;3815;1766;3095;-2038;987;574;269
1914337;2;20;2;3815;1738;3087;-2134;663;500;195
1914347;2;20;2;3815;1736;3109;-2173;344;458;186
1914357;2;20;2;3815;1789;3130;-2197;215;405;226
1914367;2;20;2;3815;1824;3152;-2231;347;318;251
1914377;2;20;2;3815;1880;3130;-2385;597;380;165
1914387;2;20;2;3815;1920;3112;-2410;785;605;-43
1914397;2;20;2;3815;1888;3145;-2338;814;782;-215
1914407;2;20;2;3815;1827;3147;-2183;743;801;-206
1914417;2;20;2;3815;1754;3090;-2085;683;792;-62
