timestamp;subject_id;activity;label;seq;ax;ay;az;gx;gy;gz
1208927;2;20;2;2405;424;4039;239;-607;-5292;-693
1208937;2;20;2;2405;344;4069;169;-403;-5451;-799
1208947;2;20;2;2405;298;4027;89;-283;-5544;-777
1208957;2;20;2;2405;314;4038;-34;-275;-5644;-834
1208967;2;20;2;2405;293;4004;-143;-265;-5680;-923
1208977;2;20;2;2405;351;4108;-96;-341;-5772;-1057
1208987;2;20;2;2405;315;4061;-157;-460;-5904;-1046
1208997;2;20;2;2405;253;4072;-74;-637;-5992;-1213
1209007;2;20;2;2405;173;4102;-1;-479;-6168;-1322
1209017;2;20;2;2405;185;4084;-107;-409;-6436;-1290
1209027;2;20;2;2405;146;4104;-175;-412;-6711;-1288
1209037;2;20;2;2405;129;4086;-154;-321;-6905;-1296
1209047;2;20;2;2405;174;4166;-167;-287;-7112;-1307
1209057;2;20;2;2405;122;4253;-150;-264;-7326;-1195
1209067;2;20;2;2405;199;4257;-251;-229;-7428;-1116
1209077;2;20;2;2405;277;4273;-308;-132;-7478;-1055
1209087;2;20;2;2405;403;4196;-417;-415;-7513;-1046
1209097;2;20;2;2405;409;4159;-414;-546;-7506;-1044
1209107;2;20;2;2405;476;4136;-283;-578;-7532;-1015
1209117;2;20;2;2405;397;4049;-213;-507;-7512;-1012
1209127;2;20;2;2405;373;4017;-163;-284;-7598;-913
1209137;2;20;2;2405;307;3975;-219;-218;-7535;-868
1209147;2;20;2;2405;356;3964;-239;-64;-7438;-810
1209157;2;20;2;2405;341;3935;-287;-72;-7279;-802
1209167;2;20;2;2405;364;3918;-350;-2;-7225;-765
1209177;2;20;2;2405;394;3908;-442;-47;-7116;-771
1209187;2;20;2;2405;334;3957;-362;39;-6988;-779
1209197;2;20;2;2405;261;3900;-244;796;-7469;-352
1209207;2;20;2;2405;254;4006;-571;1193;-7479;-322
1209217;2;20;2;2405;220;4077;-701;1078;-7151;-422
1209227;2;20;2;2405;117;4086;-699;719;-6924;-470
1209237;2;20;2;2405;-30;4096;-516;663;-6850;-441
1209247;2;20;2;2405;-64;4135;-517;799;-6725;-411
1209257;2;20;2;2405;-67;4115;-442;781;-6495;-450
1209267;2;20;2;2405;-90;4080;-343;597;-6288;-500
1209277;2;20;2;2405;-59;4045;-263;450;-6183;-542
1209287;2;20;2;2405;-158;3970;-83;368;-6045;-623
1209297;2;20;2;2405;-179;3965;36;507;-5965;-647
1209307;2;20;2;2405;-241;3887;-50;580;-5909;-642
1209317;2;20;2;2405;-229;3838;-126;631;-5815;-729
1209327;2;20;2;2405;-234;3866;-112;931;-5752;-789
1209337;2;20;2;2405;-169;3917;4;1428;-5757;-905
1209347;2;20;2;2405;-162;4059;40;1883;-5980;-1027
1209357;2;20;2;2405;-169;4183;138;2237;-6204;-1048
1209367;2;20;2;2405;-274;4324;205;2269;-6557;-1148
1209377;2;20;2;2405;-422;4392;171;2308;-6716;-1184
1209387;2;20;2;2405;-583;4517;211;2486;-6445;-1393
1209397;2;20;2;2405;-751;4670;212;2478;-6023;-1538
1209407;2;20;2;2405;-747;4705;130;2179;-5662;-1529
1209417;2;20;2;2405;-732;4812;168;2048;-5368;-1463
1209427;2;20;2;2406;-529;4915;238;2628;-5201;-1473
1209437;2;20;2;2406;-544;5092;311;3140;-5230;-1446
1209447;2;20;2;2406;-543;5179;409;3358;-5524;-1257
1209457;2;20;2;2406;-548;5106;327;3488;-5783;-1036
1209467;2;20;2;2406;-661;4941;161;3354;-5871;-930
1209477;2;20;2;2406;-829;4692;-143;2630;-6003;-500
1209487;2;20;2;2406;-814;4529;-419;1327;-6190;-114
1209497;2;20;2;2406;-714;4363;-441;129;-6145;144
1209507;2;20;2;2406;-631;4387;-371;-770;-6195;422
1209517;2;20;2;2406;-450;4153;-274;-1510;-6221;703
1209527;2;20;2;2406;-282;3966;301;-1985;-6358;711
1209537;2;20;2;2406;-266;3963;1507;288;-6473;467
1209547;2;20;2;2406;-269;3809;965;2479;-6752;455
1209557;2;20;2;2406;-52;3537;407;2141;-6815;485
1209567;2;20;2;2406;-3;3432;451;1553;-6554;308
1209577;2;20;2;2406;37;3429;453;1716;-6222;101
1209587;2;20;2;2406;80;3480;193;1524;-5910;-69
1209597;2;20;2;2406;92;3540;138;1144;-5711;-102
1209607;2;20;2;2406;55;3627;77;962;-5706;-82
1209617;2;20;2;2406;-44;3766;-41;1006;-5752;-56
1209627;2;20;2;2406;-157;3862;-51;1136;-5815;21
1209637;2;20;2;2406;-234;3958;-83;1187;-5906;111
1209647;2;20;2;2406;-325;4071;-103;1053;-5776;198
1209657;2;20;2;2406;-339;4105;-4;898;-5693;345
1209667;2;20;2;2406;-327;4122;-3;794;-5509;487
1209677;2;20;2;2406;-343;4111;76;683;-5322;620
1209687;2;20;2;2406;-267;4102;93;519;-5116;711
1209697;2;20;2;2406;-286;4079;88;357;-4805;741
1209707;2;20;2;2406;-216;4069;99;240;-4564;756
1209717;2;20;2;2406;-261;4079;62;166;-4242;727
1209727;2;20;2;2406;-268;4093;140;125;-3993;688
1209737;2;20;2;2406;-274;4082;126;110;-3813;606
1209747;2;20;2;2406;-350;4184;84;-20;-3660;578
1209757;2;20;2;2406;-382;4206;81;58;-3472;577
1209767;2;20;2;2406;-378;4172;106;54;-3441;642
1209777;2;20;2;2406;-434;4245;71;-19;-3429;686
1209787;2;20;2;2406;-412;4191;59;-94;-3460;701
1209797;2;20;2;2406;-424;4116;44;-158;-3572;696
1209807;2;20;2;2406;-424;4077;-64;-192;-3698;616
1209817;2;20;2;2406;-429;4000;-181;-221;-3680;549
1209827;2;20;2;2406;-414;3960;-185;-289;-3642;487
1209837;2;20;2;2406;-428;3947;-148;-400;-3649;491
1209847;2;20;2;2406;-428;3891;-87;-401;-3672;472
1209857;2;20;2;2406;-358;3919;-46;-269;-3670;458
1209867;2;20;2;2406;-418;3824;-4;-64;-3746;483
1209877;2;20;2;2406;-342;3923;-45;-29;-3646;349
1209887;2;20;2;2406;-292;3883;-40;-82;-3642;349
1209897;2;20;2;2406;-269;3876;-22;-7;-3627;291
1209907;2;20;2;2406;-272;3855;-81;125;-3626;234
1209917;2;20;2;2406;-338;3947;-121;-71;-3584;203
1209927;2;20;2;2407;-341;3991;-13;-40;-3527;211
1209937;2;20;2;2407;-306;4049;-6;394;-3513;208
1209947;2;20;2;2407;-218;4171;-1;757;-3569;265
1209957;2;20;2;2407;-175;4285;-5;750;-3715;318
1209967;2;20;2;2407;-133;4310;-55;688;-3768;264
1209977;2;20;2;2407;-117;4293;-144;774;-3666;96
1209987;2;20;2;2407;-155;4221;-400;691;-3654;26
1209997;2;20;2;2407;-219;4152;-586;357;-3795;91
1210007;2;20;2;2407;-223;4094;-652;-70;-3945;229
1210017;2;20;2;2407;-195;4092;-539;-516;-4068;391
1210027;2;20;2;2407;-86;4056;-305;-767;-4089;526
1210037;2;20;2;2407;36;4054;-66;-688;-4070;577
1210047;2;20;2;2407;183;4052;54;-289;-4039;583
1210057;2;20;2;2407;320;4049;77;259;-4030;559
1210067;2;20;2;2407;375;4076;-75;653;-4003;551
1210077;2;20;2;2407;375;4053;-175;768;-3965;583
1210087;2;20;2;2407;319;4019;-273;918;-3858;601
1210097;2;20;2;2407;303;4029;-347;975;-3547;539
1210107;2;20;2;2407;268;4117;-413;842;-3123;491
1210117;2;20;2;2407;235;4181;-351;601;-2669;502
1210127;2;20;2;2407;129;4237;-211;586;-2429;689
1210137;2;20;2;2407;129;4156;-195;403;-2063;593
1210147;2;20;2;2407;124;4187;-252;301;-1549;567
1210157;2;20;2;2407;50;4162;-166;98;-1123;596
1210167;2;20;2;2407;26;4089;-88;15;-814;599
1210177;2;20;2;2407;45;4071;-76;65;-552;575
1210187;2;20;2;2407;-53;4081;-75;94;-331;586
1210197;2;20;2;2407;-59;4053;9;77;-167;616
1210207;2;20;2;2407;-84;4084;-97;-46;-94;637
1210217;2;20;2;2407;-145;4051;-153;-220;-50;476
1210227;2;20;2;2407;-175;4137;-117;-182;-16;281
1210237;2;20;2;2407;-331;4168;-119;-97;-97;193
1210247;2;20;2;2407;-449;4179;-124;-44;-459;299
1210257;2;20;2;2407;-520;4171;-205;-40;-754;376
1210267;2;20;2;2407;-576;4115;-248;-100;-848;323
1210277;2;20;2;2407;-534;4137;-160;-192;-948;331
1210287;2;20;2;2407;-435;4155;-119;-403;-1171;393
1210297;2;20;2;2407;-325;4153;-88;-583;-1409;453
1210307;2;20;2;2407;-209;4133;-115;-648;-1587;456
1210317;2;20;2;2407;-172;4136;-117;-719;-1693;458
1210327;2;20;2;2407;-124;4139;-134;-791;-1713;452
1210337;2;20;2;2407;-133;4130;-85;-883;-1739;471
1210347;2;20;2;2407;-107;4111;-54;-836;-1749;497
1210357;2;20;2;2407;-103;4124;-60;-625;-1740;544
1210367;2;20;2;2407;-31;4096;-51;-497;-1798;569
1210377;2;20;2;2407;0;4120;-36;-384;-1947;636
1210387;2;20;2;2407;70;4039;-65;-165;-2058;635
1210397;2;20;2;2407;101;4000;-102;55;-2070;534
1210407;2;20;2;2407;139;3948;-96;323;-2067;499
1210417;2;20;2;2407;204;3840;-91;762;-2120;440
1210427;2;20;2;2408;243;3777;-113;1040;-2238;483
1210437;2;20;2;2408;357;3648;-150;1060;-2335;387
1210447;2;20;2;2408;409;3623;-85;1306;-2228;249
1210457;2;20;2;2408;441;3634;57;1649;-2029;70
1210467;2;20;2;2408;429;3711;141;1866;-1877;-25
1210477;2;20;2;2408;468;3838;34;1768;-1672;-28
1210487;2;20;2;2408;472;3989;-157;1581;-1264;-111
1210497;2;20;2;2408;472;4089;-294;1402;-776;-310
1210507;2;20;2;2408;367;4208;-467;1395;-393;-484
1210517;2;20;2;2408;329;4493;-372;1476;-135;-775
1210527;2;20;2;2408;-88;4860;-325;2148;-217;-548
1210537;2;20;2;2408;-142;4971;-553;2235;-369;-486
1210547;2;20;2;2408;-226;5017;-827;1974;-540;-96
1210557;2;20;2;2408;-250;4741;-1186;907;-667;310
1210567;2;20;2;2408;-42;4617;-1305;-849;-558;516
1210577;2;20;2;2408;149;4393;-891;-2658;-268;717
1210587;2;20;2;2408;354;4308;436;-2895;129;719
1210597;2;20;2;2408;395;4445;1299;-261;257;554
1210607;2;20;2;2408;583;4348;975;639;-228;886
1210617;2;20;2;2408;756;3876;444;120;-739;1106
1210627;2;20;2;2408;779;3705;33;-313;-773;930
1210637;2;20;2;2408;639;3768;-206;-204;-366;621
1210647;2;20;2;2408;495;3773;-165;5;4;423
1210657;2;20;2;2408;271;3916;27;46;-30;320
1210667;2;20;2;2408;168;3981;26;94;-363;398
1210677;2;20;2;2408;181;3976;-48;175;-631;451
1210687;2;20;2;2408;247;3965;-137;287;-759;422
1210697;2;20;2;2408;302;4022;-81;297;-832;344
1210707;2;20;2;2408;378;4060;-25;301;-984;293
1210717;2;20;2;2408;402;4104;32;302;-1187;237
1210727;2;20;2;2408;378;4071;-57;279;-1364;207
1210737;2;20;2;2408;346;4069;-130;232;-1417;137
1210747;2;20;2;2408;304;4085;-145;199;-1450;79
1210757;2;20;2;2408;275;4116;-145;148;-1526;47
1210767;2;20;2;2408;255;4177;-166;67;-1689;47
1210777;2;20;2;2408;264;4169;-202;-25;-1896;76
1210787;2;20;2;2408;276;4105;-317;-69;-2031;43
1210797;2;20;2;2408;305;4081;-344;-155;-2089;-26
1210807;2;20;2;2408;307;4055;-248;-288;-2192;-83
1210817;2;20;2;2408;330;4031;-179;-394;-2296;-121
1210827;2;20;2;2408;320;4049;-158;-497;-2276;-221
1210837;2;20;2;2408;327;4111;-103;-567;-2145;-373
1210847;2;20;2;2408;378;4209;-60;-637;-1990;-568
1210857;2;20;2;2408;378;4274;-67;-843;-2091;-744
1210867;2;20;2;2408;248;4310;-133;-797;-2319;-859
1210877;2;20;2;2408;43;4278;-354;-552;-2344;-999
1210887;2;20;2;2408;-156;4317;-487;-502;-2132;-1106
1210897;2;20;2;2408;-303;4411;-483;-782;-1877;-1100
1210907;2;20;2;2408;-349;4486;-422;-1189;-1687;-1046
1210917;2;20;2;2408;-322;4497;-335;-1471;-1666;-960
1210927;2;20;2;2409;-189;4398;-414;-1756;-1895;-873
1210937;2;20;2;2409;-140;4209;-543;-2185;-2092;-795
1210947;2;20;2;2409;-46;4053;-506;-2357;-2151;-925
1210957;2;20;2;2409;3;3956;-404;-2233;-2261;-1004
1210967;2;20;2;2409;-4;3905;-275;-2080;-2402;-1188
1210977;2;20;2;2409;-35;4031;-7;-1620;-2513;-1244
1210987;2;20;2;2409;-51;4097;121;-1167;-2713;-1193
1210997;2;20;2;2409;-64;4244;189;-710;-2979;-1174
1211007;2;20;2;2409;-36;4255;34;-89;-3230;-1113
1211017;2;20;2;2409;-84;4303;-273;385;-3365;-1140
1211027;2;20;2;2409;-136;4315;-454;792;-3318;-1153
1211037;2;20;2;2409;-214;4205;-613;1043;-3246;-1186
1211047;2;20;2;2409;-312;4160;-679;800;-3198;-1096
1211057;2;20;2;2409;-341;4164;-718;-110;-3314;-840
1211067;2;20;2;2409;-328;4046;-648;-1085;-3402;-582
1211077;2;20;2;2409;-271;3911;-530;-1609;-3323;-535
1211087;2;20;2;2409;-236;3800;-347;-1622;-3065;-607
1211097;2;20;2;2409;-169;3722;-67;-1369;-2963;-646
1211107;2;20;2;2409;-115;3709;331;-767;-3036;-613
1211117;2;20;2;2409;-120;3693;608;670;-3094;-638
1211127;2;20;2;2409;-116;3674;331;1356;-3119;-565
1211137;2;20;2;2409;-41;3631;169;1379;-2975;-579
1211147;2;20;2;2409;12;3692;119;1548;-2583;-723
1211157;2;20;2;2409;-6;3800;245;1982;-2112;-1032
1211167;2;20;2;2409;-81;4002;446;2699;-1827;-1347
1211177;2;20;2;2409;-188;4030;366;3272;-1706;-1531
1211187;2;20;2;2409;-350;4194;100;3070;-1598;-1659
1211197;2;20;2;2409;-579;4333;-174;2323;-1435;-1544
1211207;2;20;2;2409;-669;4378;-248;1951;-1194;-1407
1211217;2;20;2;2409;-867;4458;-382;1656;-1112;-1084
1211227;2;20;2;2409;-953;4490;-484;1200;-1139;-605
1211237;2;20;2;2409;-1030;4374;-637;323;-1297;-111
1211247;2;20;2;2409;-1119;4278;-665;-654;-1326;365
1211257;2;20;2;2409;-1017;4069;-458;-1237;-1130;588
1211267;2;20;2;2409;-825;4012;-301;-1507;-828;659
1211277;2;20;2;2409;-753;3920;82;-1736;-460;493
1211287;2;20;2;2409;-603;4013;327;-1790;-411;424
1211297;2;20;2;2409;-622;4007;538;-1559;-379;378
1211307;2;20;2;2409;-700;4022;639;-1218;-497;404
1211317;2;20;2;2409;-738;4006;530;-830;-548;418
1211327;2;20;2;2409;-783;4011;385;-533;-484;427
1211337;2;20;2;2409;-741;4005;266;-428;-436;399
1211347;2;20;2;2409;-738;4032;185;-538;-447;345
1211357;2;20;2;2409;-749;4024;176;-672;-630;354
1211367;2;20;2;2409;-727;3999;194;-659;-857;374
1211377;2;20;2;2409;-700;4008;109;-531;-1088;367
1211387;2;20;2;2409;-715;3961;67;-312;-1230;353
1211397;2;20;2;2409;-646;3882;-2;-62;-1254;294
1211407;2;20;2;2409;-643;3912;-157;96;-1286;237
1211417;2;20;2;2409;-629;3879;-233;190;-1162;158
1211427;2;20;2;2410;-610;3986;-231;112;-1145;194
1211437;2;20;2;2410;-664;3931;-234;-34;-1073;234
1211447;2;20;2;2410;-680;4001;-273;-92;-893;217
1211457;2;20;2;2410;-706;3992;-325;-257;-576;194
1211467;2;20;2;2410;-803;4024;-302;-564;-237;173
1211477;2;20;2;2410;-866;4023;-196;-647;22;136
1211487;2;20;2;2410;-816;3994;-211;-558;253;160
1211497;2;20;2;2410;-809;3952;-201;-744;492;206
1211507;2;20;2;2410;-668;3901;-45;-941;703;263
1211517;2;20;2;2410;-472;3925;223;-696;943;186
1211527;2;20;2;2410;-257;4027;538;181;1085;39
1211537;2;20;2;2410;-77;4102;660;1567;1080;-260
1211547;2;20;2;2410;-74;4224;496;2907;1165;-694
1211557;2;20;2;2410;-172;4363;112;3704;1423;-1145
1211567;2;20;2;2410;-418;4463;-286;3989;1784;-1572
1211577;2;20;2;2410;-675;4469;-625;3855;1816;-1638
1211587;2;20;2;2410;-1068;4683;-1075;2869;1488;-1314
1211597;2;20;2;2410;-1238;4554;-1394;1751;1045;-613
1211607;2;20;2;2410;-1256;4284;-1682;1121;986;-257
1211617;2;20;2;2410;-1172;4136;-1830;543;1482;-101
1211627;2;20;2;2410;-883;3987;-1612;-578;2093;151
1211637;2;20;2;2410;-485;3871;-1027;-1748;2495;225
1211647;2;20;2;2410;-227;3953;-385;-2261;2664;263
1211657;2;20;2;2410;-43;3941;84;-1859;2596;333
1211667;2;20;2;2410;46;3878;176;-848;2340;470
1211677;2;20;2;2410;61;3762;-29;27;2091;620
1211687;2;20;2;2410;25;3626;-339;549;2109;633
1211697;2;20;2;2410;24;3539;-511;892;2319;563
1211707;2;20;2;2410;87;3540;-597;941;2422;539
1211717;2;20;2;2410;114;3554;-661;707;2579;566
1211727;2;20;2;2410;200;3595;-529;617;2906;414
1211737;2;20;2;2410;307;3724;-481;803;3458;183
1211747;2;20;2;2410;379;3906;-307;1172;4146;-118
1211757;2;20;2;2410;465;4233;-112;1620;4581;-258
1211767;2;20;2;2410;502;4510;20;1952;4731;-245
1211777;2;20;2;2410;568;4715;-92;2350;4667;-119
1211787;2;20;2;2410;539;4761;-479;2373;4533;19
1211797;2;20;2;2410;435;4773;-896;1862;4424;211
1211807;2;20;2;2410;313;4768;-1210;1087;4356;409
1211817;2;20;2;2410;155;4625;-1376;196;4459;527
1211827;2;20;2;2410;88;4511;-1418;-746;4666;573
1211837;2;20;2;2410;64;4341;-1234;-1744;4881;687
1211847;2;20;2;2410;117;4133;-1050;-2437;4953;762
1211857;2;20;2;2410;224;3939;-851;-2860;5132;714
1211867;2;20;2;2410;281;3730;-709;-3111;5339;624
1211877;2;20;2;2410;279;3569;-531;-3328;5551;473
1211887;2;20;2;2410;257;3428;-270;-3338;5742;306
1211897;2;20;2;2410;141;3412;-108;-3027;5743;303
1211907;2;20;2;2410;37;3316;-16;-2591;5631;362
1211917;2;20;2;2410;11;3320;-124;-2071;5302;387
1211927;2;20;2;2411;-85;3396;-372;-1800;4890;310
1211937;2;20;2;2411;-95;3367;-612;-1581;4730;440
1211947;2;20;2;2411;-43;3343;-774;-1562;4763;132
1211957;2;20;2;2411;91;3508;-633;-1476;4498;234
1211967;2;20;2;2411;-48;3441;-431;-1147;4392;-71
1211977;2;20;2;2411;-291;3557;-460;-812;4589;-267
1211987;2;20;2;2411;-333;3666;-421;-412;5063;-311
1211997;2;20;2;2411;-318;3811;-545;-7;5398;-241
1212007;2;20;2;2411;-376;3967;-584;-403;5641;-429
1212017;2;20;2;2411;-581;4398;-353;-352;5509;-397
1212027;2;20;2;2411;-662;4326;-756;331;4648;-174
1212037;2;20;2;2411;-850;3933;-1587;286;4063;67
1212047;2;20;2;2411;-854;3707;-1613;-396;4357;245
1212057;2;20;2;2411;-632;3469;-1056;73;5325;319
1212067;2;20;2;2411;-227;3427;-562;931;5686;644
1212077;2;20;2;2411;250;3248;-574;1265;5405;1091
1212087;2;20;2;2411;435;3162;-659;1581;5502;1349
1212097;2;20;2;2411;357;3246;-777;2249;6366;1314
1212107;2;20;2;2411;109;3507;-526;2529;7553;1191
1212117;2;20;2;2411;-310;3777;-148;2227;8208;1405
1212127;2;20;2;2411;-529;3875;-104;1918;8306;1847
1212137;2;20;2;2411;-763;3792;-509;1689;8243;2205
1212147;2;20;2;2411;-709;3638;-994;1413;8293;2316
1212157;2;20;2;2411;-623;3434;-1108;1370;7995;2518
1212167;2;20;2;2411;-721;3173;-1098;1763;7200;2590
1212177;2;20;2;2411;-639;2843;-1139;2275;6223;2570
1212187;2;20;2;2411;-1251;2419;-799;2952;5630;2679
1212197;2;20;2;2411;-1510;1905;-466;4789;5524;2348
1212207;2;20;2;2411;-1418;1375;-337;6198;5287;2439
1212217;2;20;2;2411;-1112;934;-195;6222;4934;2563
1212227;2;20;2;2411;-898;877;181;6190;4674;2290
1212237;2;20;2;2411;-660;706;298;6387;4389;2278
1212247;2;20;2;2411;-325;615;370;6825;3849;2317
1212257;2;20;2;2411;-197;149;136;6644;3331;2117
1212267;2;20;2;2411;-204;445;16;6225;3055;1539
1212277;2;20;2;2411;-69;540;-174;6612;2991;1266
1212287;2;20;2;2411;45;627;-334;7047;2912;866
1212297;2;20;2;2411;256;806;-364;6938;2785;520
1212307;2;20;2;2411;169;1019;-207;6471;2439;297
1212317;2;20;2;2411;-6;1266;-37;6317;1556;310
1212327;2;20;2;2411;1;1521;-277;6439;448;485
1212337;2;20;2;2411;-126;1708;-794;6251;-358;710
1212347;2;20;2;2411;46;1694;-1093;6088;-1346;909
1212357;2;20;2;2411;184;1828;-1717;5798;-2256;1214
1212367;2;20;2;2411;258;1835;-2066;5114;-2727;1518
1212377;2;20;2;2411;436;1896;-2127;4455;-2765;1685
1212387;2;20;2;2411;739;2065;-1775;4366;-2510;1667
1212397;2;20;2;2411;1143;2486;-1404;4410;-2484;1775
1212407;2;20;2;2411;1822;3025;-1393;4300;-2608;1905
1212417;2;20;2;2411;2291;3330;-1640;5239;-2567;1912
1212427;2;20;2;2412;2517;3336;-2334;7530;-2090;1683
1212437;2;20;2;2412;2654;3513;-3008;10122;-1398;618
1212447;2;20;2;2412;1910;3729;-4252;10089;-817;-29
1212457;2;20;2;2412;1044;3478;-4969;7093;554;-98
1212467;2;20;2;2412;325;3241;-4359;3477;2725;-224
1212477;2;20;2;2412;-213;3285;-3066;1730;4728;-46
1212487;2;20;2;2412;126;3558;-1673;2827;5781;340
1212497;2;20;2;2412;769;4213;-877;5238;5574;741
1212507;2;20;2;2412;1219;4692;-1310;7218;4214;682
1212517;2;20;2;2412;842;5041;-2339;8894;2483;793
1212527;2;20;2;2412;296;5220;-4017;9921;1147;1104
1212537;2;20;2;2412;-652;5498;-5570;8941;533;1518
1212547;2;20;2;2412;-1413;5332;-6631;6334;458;2431
1212557;2;20;2;2412;-795;5126;-7408;3310;2397;2513
1212567;2;20;2;2412;37;5195;-6794;-314;5472;2032
1212577;2;20;2;2412;1031;4917;-5365;-3334;7453;1540
1212587;2;20;2;2412;1603;4847;-4196;-4353;8729;847
1212597;2;20;2;2412;1167;5057;-3278;-3619;8988;512
1212607;2;20;2;2412;411;4932;-3476;-2010;7999;968
1212617;2;20;2;2412;-122;4638;-4542;-715;7105;1799
1212627;2;20;2;2412;-416;4647;-5128;-306;6298;2600
1212637;2;20;2;2412;-702;4779;-5584;-305;5132;3378
1212647;2;20;2;2412;-609;5157;-6227;3;4776;3542
1212657;2;20;2;2412;361;5617;-6904;-351;5668;2963
1212667;2;20;2;2412;2454;5484;-6383;-3971;7533;2027
1212677;2;20;2;2412;5209;4846;-4967;-6882;8707;411
1212687;2;20;2;2412;5534;4456;-3827;-8322;8057;-1964
1212697;2;20;2;2412;3471;3574;-3563;-8939;5937;-3228
1212707;2;20;2;2412;1127;3244;-3545;-8598;3604;-3238
1212717;2;20;2;2412;-670;3064;-3437;-7195;616;-1387
1212727;2;20;2;2412;-1405;2807;-3825;-4581;-1561;552
1212737;2;20;2;2412;-1556;2847;-4407;-3596;-1978;2680
1212747;2;20;2;2412;173;2403;-4019;-4473;-2564;5514
1212757;2;20;2;2412;2149;1719;-4029;-6403;-2918;6749
1212767;2;20;2;2412;3339;1443;-3659;-8234;-2707;6866
1212777;2;20;2;2412;4054;838;-3507;-8685;-2759;6552
1212787;2;20;2;2412;3705;241;-3900;-10115;-1955;5296
1212797;2;20;2;2412;2774;285;-3201;-11220;3;3997
1212807;2;20;2;2412;2304;741;-1976;-10777;1712;3014
1212817;2;20;2;2412;1973;1817;-729;-9334;2962;2045
1212827;2;20;2;2412;1664;3123;193;-6243;2744;2014
1212837;2;20;2;2412;2313;3649;-549;-2023;1205;2871
1212847;2;20;2;2412;3101;4429;-2297;-171;-563;4325
1212857;2;20;2;2412;3746;5049;-4475;-2440;-1960;6642
1212867;2;20;2;2412;4752;4595;-6091;-7236;-1832;8889
1212877;2;20;2;2412;5511;3137;-6370;-14398;388;9452
1212887;2;20;2;2412;6743;2511;4705;-8506;5436;6963
1212897;2;20;2;2412;3946;3524;1465;292;6662;6277
1212907;2;20;2;2412;4140;873;4728;-4861;5694;9284
1212917;2;20;2;2412;3570;443;1847;-4400;5404;10943
1212927;2;20;2;2413;4268;291;374;-5858;7024;11972
1212937;2;20;2;2413;4975;727;-689;-6074;9366;10844
1212947;2;20;2;2413;4641;1373;-333;-6139;10917;9129
1212957;2;20;2;2413;3805;1727;624;-6131;10930;7749
1212967;2;20;2;2413;3297;1513;1446;-6939;10077;7038
1212977;2;20;2;2413;3248;1064;2035;-7160;8977;6343
1212987;2;20;2;2413;2978;979;2349;-7272;7740;5669
1212997;2;20;2;2413;2929;766;2604;-7130;6193;6054
1213007;2;20;2;2413;3199;550;2757;-6080;4507;6939
1213017;2;20;2;2413;3517;549;2579;-5324;3155;7740
1213027;2;20;2;2413;3794;636;2442;-5083;2173;8629
1213037;2;20;2;2413;4352;528;2027;-4767;1811;9335
1213047;2;20;2;2413;5016;564;1599;-4565;2009;9323
1213057;2;20;2;2413;5172;667;1082;-5042;2771;8998
1213067;2;20;2;2413;5098;318;937;-5710;4170;8650
1213077;2;20;2;2413;4888;-26;1594;-6408;6037;8217
1213087;2;20;2;2413;4421;167;2273;-7148;7354;7676
1213097;2;20;2;2413;4260;569;3161;-8018;7789;7522
1213107;2;20;2;2413;4617;882;3996;-7905;7147;7466
1213117;2;20;2;2413;5011;1120;4274;-6352;4552;7704
1213127;2;20;2;2413;4970;1912;3746;-4966;-213;8924
1213137;2;20;2;2413;5432;1889;2867;-2736;-4119;11480
1213147;2;20;2;2413;5217;1665;729;920;-4956;12809
1213157;2;20;2;2413;7264;461;-1425;4037;-2815;12198
1213167;2;20;2;2413;7926;-928;-2858;2355;1469;12986
1213177;2;20;2;2413;14559;-4414;-914;-2657;4180;7815
1213187;2;20;2;2413;10976;-2234;6904;-988;10627;-953
1213197;2;20;2;2413;6605;-1582;7109;8882;12125;-5385
1213207;2;20;2;2413;4703;-1864;3025;7224;8712;-7326
1213217;2;20;2;2413;2812;-1760;1795;2333;5534;-6824
1213227;2;20;2;2413;1194;-1699;1749;-1;3022;-5032
1213237;2;20;2;2413;-564;-431;395;-1699;790;-4056
1213247;2;20;2;2413;-1918;1674;246;-5311;3037;-2788
1213257;2;20;2;2413;-1115;3346;2828;-6704;5747;-932
1213267;2;20;2;2413;1023;4086;4746;-4196;5382;1391
1213277;2;20;2;2413;3971;4590;4241;-2081;2263;2404
1213287;2;20;2;2413;5312;3883;1995;-3038;-1649;2849
1213297;2;20;2;2413;5463;1811;460;-6494;-4264;2205
1213307;2;20;2;2413;5082;-72;154;-8840;-4333;517
1213317;2;20;2;2413;4402;-992;1080;-8263;-1951;-1486
1213327;2;20;2;2413;3633;-1150;2046;-6166;471;-2597
1213337;2;20;2;2413;3278;-859;2507;-5046;680;-2275
1213347;2;20;2;2413;3416;-611;2528;-4602;-613;-543
1213357;2;20;2;2413;3882;-660;1908;-3841;-1464;786
1213367;2;20;2;2413;4482;-425;1375;-3048;-836;662
1213377;2;20;2;2413;4818;-41;1016;-2400;224;-3
1213387;2;20;2;2413;4940;72;1057;-2178;1301;-726
1213397;2;20;2;2413;4757;49;1407;-2294;1915;-1428
1213407;2;20;2;2413;4478;192;2133;-2100;1811;-1858
1213417;2;20;2;2413;4155;273;2533;-1451;1299;-2053
1213427;2;20;2;2414;3675;317;2437;-1561;417;-2114
1213437;2;20;2;2414;3270;314;2033;-1939;-933;-1842
1213447;2;20;2;2414;3045;451;1521;-2583;-2127;-1426
1213457;2;20;2;2414;3054;656;1545;-2962;-2314;-1080
1213467;2;20;2;2414;3186;914;1804;-2901;-2330;-965
1213477;2;20;2;2414;3520;1111;1983;-3024;-2819;-804
1213487;2;20;2;2414;3940;1074;2046;-3303;-3400;-758
1213497;2;20;2;2414;4181;1134;2106;-3111;-3913;-936
1213507;2;20;2;2414;4132;1052;1960;-2530;-4254;-841
1213517;2;20;2;2414;4025;893;1669;-1881;-4195;-709
1213527;2;20;2;2414;3871;787;1532;-1642;-3831;-542
1213537;2;20;2;2414;3837;966;1489;-1270;-3643;-455
1213547;2;20;2;2414;3905;1073;1447;-945;-3449;-305
1213557;2;20;2;2414;3937;1090;1554;-849;-3358;-257
1213567;2;20;2;2414;3923;977;1633;-907;-3548;-102
1213577;2;20;2;2414;4097;929;1466;-1256;-3695;41
1213587;2;20;2;2414;4453;1171;1500;-1603;-3407;199
1213597;2;20;2;2414;4617;1449;1639;-729;-3021;404
1213607;2;20;2;2414;4754;1013;1549;-187;-2636;661
1213617;2;20;2;2414;4797;793;1513;-909;-2424;285
1213627;2;20;2;2414;4621;708;1778;-2011;-2398;-345
1213637;2;20;2;2414;4209;524;2156;-1669;-2557;-737
1213647;2;20;2;2414;4054;181;2333;268;-2696;-913
1213657;2;20;2;2414;4034;-69;1962;2002;-2667;-1166
1213667;2;20;2;2414;4161;-241;1471;2618;-2611;-1179
1213677;2;20;2;2414;4410;-331;1002;2289;-2411;-1124
1213687;2;20;2;2414;4765;-254;1400;1985;-2105;-1290
1213697;2;20;2;2414;5195;-298;1627;2673;-2216;-1636
1213707;2;20;2;2414;5377;-309;1366;3167;-2647;-2352
1213717;2;20;2;2414;5329;-331;971;2889;-3000;-3040
1213727;2;20;2;2414;5276;-445;1097;2456;-2880;-3908
1213737;2;20;2;2414;4979;-497;1277;2856;-2290;-5166
1213747;2;20;2;2414;4589;-297;1025;3206;-1526;-6075
1213757;2;20;2;2414;4451;-94;953;2900;-1234;-6438
1213767;2;20;2;2414;4548;117;1034;2658;-1404;-6399
1213777;2;20;2;2414;4808;510;1004;2692;-1802;-6258
1213787;2;20;2;2414;5062;884;1099;2695;-2247;-5874
1213797;2;20;2;2414;5480;974;1168;2473;-2798;-5648
1213807;2;20;2;2414;5479;1274;1199;2248;-3135;-5730
1213817;2;20;2;2414;5283;1443;1254;2559;-3482;-5550
1213827;2;20;2;2414;5209;1360;905;2778;-3763;-5329
1213837;2;20;2;2414;5181;1409;350;2746;-3429;-5473
1213847;2;20;2;2414;4971;1477;121;2736;-2805;-5725
1213857;2;20;2;2414;4727;1482;3;2503;-2621;-5913
1213867;2;20;2;2414;4519;1436;-83;2001;-2715;-6087
1213877;2;20;2;2414;4382;1417;74;1844;-2784;-6235
1213887;2;20;2;2414;4115;1426;211;1947;-2884;-6350
1213897;2;20;2;2414;4114;1446;197;2265;-2599;-6535
1213907;2;20;2;2414;4018;1498;192;2828;-2021;-6901
1213917;2;20;2;2414;3849;1423;50;3321;-1304;-7171
1213927;2;20;2;2415;3689;1447;64;3516;-907;-7466
1213937;2;20;2;2415;3293;1536;109;3730;-1155;-7536
1213947;2;20;2;2415;2934;1488;-8;4048;-1423;-7378
1213957;2;20;2;2415;2583;1537;61;4161;-1474;-7215
1213967;2;20;2;2415;2450;1812;133;4202;-1502;-6929
1213977;2;20;2;2415;2553;2019;-19;4165;-1240;-6773
1213987;2;20;2;2415;2718;2283;7;3935;-1085;-6822
1213997;2;20;2;2415;2896;2442;100;3757;-1423;-6765
1214007;2;20;2;2415;3075;2518;29;3757;-1593;-7029
1214017;2;20;2;2415;3074;2623;58;4048;-1513;-7438
1214027;2;20;2;2415;2977;2707;55;4282;-1516;-7471
1214037;2;20;2;2415;2783;2761;110;4232;-1460;-7329
1214047;2;20;2;2415;2540;2833;355;3984;-1672;-7005
1214057;2;20;2;2415;2340;2805;457;3964;-2351;-6379
1214067;2;20;2;2415;2302;2595;151;4041;-3075;-5763
1214077;2;20;2;2415;2143;2352;-359;4188;-3336;-5390
1214087;2;20;2;2415;1934;2245;-745;4102;-2958;-5222
1214097;2;20;2;2415;1903;2357;-894;3964;-2429;-5181
1214107;2;20;2;2415;2081;2676;-670;4075;-2007;-5194
1214117;2;20;2;2415;2367;2988;-546;4367;-1913;-5263
1214127;2;20;2;2415;2735;3167;-618;4651;-2085;-5492
1214137;2;20;2;2415;2846;3362;-717;4615;-2514;-5647
1214147;2;20;2;2415;2763;3414;-728;4194;-2947;-5799
1214157;2;20;2;2415;2540;3465;-669;3779;-3090;-6085
1214167;2;20;2;2415;2409;3403;-689;3818;-2895;-6292
1214177;2;20;2;2415;2212;3569;-891;3732;-2703;-6449
1214187;2;20;2;2415;2050;3654;-951;3740;-2591;-6415
1214197;2;20;2;2415;1905;3771;-878;3738;-2674;-6273
1214207;2;20;2;2415;1722;3884;-860;3803;-2829;-6250
1214217;2;20;2;2415;1456;3895;-824;3834;-2849;-6164
1214227;2;20;2;2415;1370;3844;-746;3929;-2644;-6180
1214237;2;20;2;2415;1546;3689;-629;4139;-2523;-6235
1214247;2;20;2;2415;1845;3455;-635;4566;-2515;-6478
1214257;2;20;2;2415;1941;3181;-803;5133;-2515;-6949
1214267;2;20;2;2415;1928;3050;-942;5657;-2433;-7538
1214277;2;20;2;2415;1849;2987;-905;6069;-2638;-8028
1214287;2;20;2;2415;1702;3072;-847;6534;-3101;-8132
1214297;2;20;2;2415;1513;3091;-787;7459;-3700;-7708
1214307;2;20;2;2415;1294;3024;-883;8641;-4355;-7113
1214317;2;20;2;2415;1031;2877;-1474;9750;-4766;-6601
1214327;2;20;2;2415;958;2649;-2265;9681;-4540;-6320
1214337;2;20;2;2415;1165;2726;-2681;8690;-3875;-6643
1214347;2;20;2;2415;1360;2796;-2871;7453;-2822;-7194
1214357;2;20;2;2415;1378;2890;-2711;5962;-1605;-7841
1214367;2;20;2;2415;1363;2997;-2408;4004;-864;-8222
1214377;2;20;2;2415;1330;3116;-1967;2509;-583;-8856
1214387;2;20;2;2415;1150;3255;-1466;2004;-410;-9140
1214397;2;20;2;2415;916;3355;-1160;2169;-681;-8662
1214407;2;20;2;2415;627;3558;-927;3259;-1599;-7857
1214417;2;20;2;2415;382;3484;-856;4198;-2678;-6690
1214427;2;20;2;2416;39;3493;-1157;4844;-3792;-5668
1214437;2;20;2;2416;-106;3271;-1650;5970;-4435;-4691
1214447;2;20;2;2416;-185;2953;-2234;7615;-4356;-4060
1214457;2;20;2;2416;-362;2927;-2902;9071;-3960;-3455
1214467;2;20;2;2416;-444;2895;-3591;9817;-3652;-2549
1214477;2;20;2;2416;-337;2629;-4177;9730;-3398;-1546
1214487;2;20;2;2416;-152;2388;-4783;8620;-3170;-691
1214497;2;20;2;2416;60;2317;-5261;6849;-2653;-184
1214507;2;20;2;2416;310;2348;-5388;4327;-2059;185
1214517;2;20;2;2416;518;2489;-5222;1675;-1556;217
1214527;2;20;2;2416;618;2741;-4728;-264;-1282;106
1214537;2;20;2;2416;650;2920;-4321;-1098;-1354;213
1214547;2;20;2;2416;621;2881;-4001;-727;-1496;302
1214557;2;20;2;2416;450;2772;-3867;292;-1620;297
1214567;2;20;2;2416;198;2726;-3907;1420;-1579;238
1214577;2;20;2;2416;121;2776;-4165;2234;-1421;238
1214587;2;20;2;2416;88;2756;-4499;2436;-807;275
1214597;2;20;2;2416;79;2516;-4718;1795;391;214
1214607;2;20;2;2416;270;2505;-4571;371;1960;-142
1214617;2;20;2;2416;527;2708;-4065;-881;3080;-54
1214627;2;20;2;2416;759;2818;-3753;-1403;3172;673
1214637;2;20;2;2416;846;2874;-3769;-1735;2859;1606
1214647;2;20;2;2416;858;2890;-3850;-2335;2424;2276
1214657;2;20;2;2416;874;2880;-3800;-3027;2158;2560
1214667;2;20;2;2416;762;2934;-3603;-3583;2123;2692
1214677;2;20;2;2416;729;2880;-3273;-3438;1882;2681
1214687;2;20;2;2416;844;2758;-3503;-2452;1970;2199
1214697;2;20;2;2416;870;2677;-3634;-905;2660;1398
1214707;2;20;2;2416;898;2483;-3712;530;2801;999
1214717;2;20;2;2416;932;2067;-3952;817;2581;781
1214727;2;20;2;2416;634;1808;-4140;-9;2556;276
1214737;2;20;2;2416;253;1603;-3969;-1138;3106;-118
1214747;2;20;2;2416;76;1450;-3546;-2524;3466;-387
1214757;2;20;2;2416;31;1523;-3005;-3508;3542;-345
1214767;2;20;2;2416;206;1513;-2664;-3647;3329;-106
1214777;2;20;2;2416;407;1586;-2386;-3301;3127;183
1214787;2;20;2;2416;715;1778;-2191;-2960;2914;323
1214797;2;20;2;2416;856;1968;-2028;-2611;3009;83
1214807;2;20;2;2416;1222;2107;-1942;-1972;3243;-822
1214817;2;20;2;2416;1481;2447;-2032;-1058;3660;-1795
1214827;2;20;2;2416;1479;2765;-1837;-274;3762;-2589
1214837;2;20;2;2416;1131;2677;-1498;138;3815;-2855
1214847;2;20;2;2416;587;2815;-759;31;4477;-3228
1214857;2;20;2;2416;-300;2952;-206;-489;4448;-2922
1214867;2;20;2;2416;-1027;2827;-471;-1099;1933;-997
1214877;2;20;2;2416;-996;2473;-1347;-813;-1352;1122
1214887;2;20;2;2416;-768;2311;-2770;415;-3491;2937
1214897;2;20;2;2416;-1567;2919;-4456;1584;-2968;3560
1214907;2;20;2;2416;-428;1770;-5112;1519;-1133;3068
1214917;2;20;2;2416;-305;2270;-5406;-1886;1328;165
1214927;2;20;2;2417;-27;2991;-3461;-6397;2670;-2222
1214937;2;20;2;2417;117;4212;-675;-6461;2453;-4091
1214947;2;20;2;2417;-325;4881;370;-626;777;-4844
1214957;2;20;2;2417;-737;3985;-1650;1335;-1668;-5191
1214967;2;20;2;2417;-1302;3734;-2680;-986;-3569;-5322
1214977;2;20;2;2417;-1577;3738;-2595;-1754;-4627;-4837
1214987;2;20;2;2417;-1348;3475;-2735;-709;-5408;-4292
1214997;2;20;2;2417;-1082;3410;-3087;-3;-5929;-3910
1215007;2;20;2;2417;-575;3175;-3010;-41;-6276;-3559
1215017;2;20;2;2417;-122;2943;-2827;150;-6967;-3194
1215027;2;20;2;2417;367;2774;-2686;1308;-8011;-2382
1215037;2;20;2;2417;791;2425;-2977;2972;-9137;-1513
1215047;2;20;2;2417;962;2157;-3336;4230;-9813;-1029
1215057;2;20;2;2417;1071;2096;-3727;4637;-10019;-891
1215067;2;20;2;2417;863;2271;-3720;3784;-9560;-789
1215077;2;20;2;2417;671;2355;-3451;2210;-8965;-884
1215087;2;20;2;2417;156;2703;-3249;1283;-8571;-1005
1215097;2;20;2;2417;-404;3107;-3362;1533;-8469;-695
1215107;2;20;2;2417;-780;3092;-3748;2151;-8085;-387
1215117;2;20;2;2417;-1155;2965;-4149;2105;-7217;-275
1215127;2;20;2;2417;-1421;2835;-4243;911;-5785;-282
1215137;2;20;2;2417;-1424;2899;-3792;-631;-4376;-237
1215147;2;20;2;2417;-1075;3041;-3475;-1105;-3380;-239
1215157;2;20;2;2417;-820;3155;-3441;-528;-2417;-587
1215167;2;20;2;2417;-747;3346;-3397;-153;-1484;-1172
1215177;2;20;2;2417;-705;3565;-3271;-661;-563;-2061
1215187;2;20;2;2417;-984;4071;-2838;-1477;343;-2959
1215197;2;20;2;2417;-1125;4544;-2396;-2137;1380;-3315
1215207;2;20;2;2417;-1215;5322;-1773;-2729;2139;-3176
1215217;2;20;2;2417;-1273;5793;-1279;-2660;1634;-2058
1215227;2;20;2;2417;-1225;5736;-1397;-1578;-30;-537
1215237;2;20;2;2417;-1188;5076;-2258;283;-1393;495
1215247;2;20;2;2417;-1216;4233;-3377;2034;-1305;627
1215257;2;20;2;2417;-1215;3386;-4183;2482;-181;19
1215267;2;20;2;2417;-1215;2985;-4572;958;1484;-1035
1215277;2;20;2;2417;-1069;3032;-4028;-2170;3256;-2135
1215287;2;20;2;2417;-754;3558;-3048;-5275;4671;-3100
1215297;2;20;2;2417;-523;4278;-1601;-6251;5260;-3721
1215307;2;20;2;2417;-301;4726;-412;-4152;3879;-3428
1215317;2;20;2;2417;-9;4684;-638;483;1249;-2511
1215327;2;20;2;2417;94;4033;-1848;4913;-640;-2033
1215337;2;20;2;2417;-159;3382;-3034;6681;-1315;-2517
1215347;2;20;2;2417;-593;3105;-3779;6050;-1445;-3197
1215357;2;20;2;2417;-1038;2958;-4108;4921;-1666;-3440
1215367;2;20;2;2417;-1386;2768;-4319;4208;-1942;-3331
1215377;2;20;2;2417;-1628;2755;-4378;3648;-1864;-3118
1215387;2;20;2;2417;-1669;2757;-4414;2925;-1631;-2635
1215397;2;20;2;2417;-1414;2751;-4462;1556;-1180;-2148
1215407;2;20;2;2417;-1334;2943;-4226;-212;-970;-1582
1215417;2;20;2;2417;-1188;3242;-3822;-1234;-895;-1050
1215427;2;20;2;2418;-1028;3598;-3592;-1035;-725;-517
1215437;2;20;2;2418;-723;3737;-3418;159;10;-363
1215447;2;20;2;2418;-434;3715;-3534;946;835;-281
1215457;2;20;2;2418;-160;3599;-3764;89;1675;-48
1215467;2;20;2;2418;140;3646;-3659;-1038;2311;11
1215477;2;20;2;2418;333;3446;-3597;-1100;3047;-108
1215487;2;20;2;2418;285;3184;-3863;-335;4129;-702
1215497;2;20;2;2418;72;2840;-4066;300;5427;-1628
1215507;2;20;2;2418;-211;2735;-4232;128;6061;-2448
1215517;2;20;2;2418;-530;2589;-4078;-470;6388;-3018
1215527;2;20;2;2418;-767;2566;-3897;-842;6173;-3417
1215537;2;20;2;2418;-934;2537;-3897;-1075;5761;-3548
1215547;2;20;2;2418;-1101;2725;-3915;-1469;5650;-3783
1215557;2;20;2;2418;-1299;3046;-3654;-1190;5865;-4327
1215567;2;20;2;2418;-1633;3419;-3142;251;6119;-4846
1215577;2;20;2;2418;-1524;3013;-3414;1973;6030;-5304
1215587;2;20;2;2418;-1559;3377;-3859;2568;6023;-5577
1215597;2;20;2;2418;-1428;3279;-4185;2651;5962;-5832
1215607;2;20;2;2418;-1079;2931;-4183;2622;6024;-6232
1215617;2;20;2;2418;-916;2915;-4265;1953;6035;-6586
1215627;2;20;2;2418;-775;3026;-4055;346;5727;-6712
1215637;2;20;2;2418;-669;2930;-3685;-1397;5451;-6647
1215647;2;20;2;2418;-610;2776;-3302;-2372;5339;-6656
1215657;2;20;2;2418;-621;2789;-3003;-2424;5235;-6664
1215667;2;20;2;2418;-530;2778;-2779;-2025;4611;-6445
1215677;2;20;2;2418;-200;2593;-2960;-1904;3679;-6126
1215687;2;20;2;2418;-90;2479;-3073;-2104;3224;-6285
1215697;2;20;2;2418;-96;2404;-2907;-2228;2859;-6452
1215707;2;20;2;2418;-110;2214;-2966;-2333;2756;-6629
1215717;2;20;2;2418;-268;1973;-3084;-2577;3247;-7010
1215727;2;20;2;2418;-578;1884;-3122;-2922;4193;-7378
1215737;2;20;2;2418;-639;1895;-2989;-3294;5187;-7620
1215747;2;20;2;2418;-616;1936;-2979;-3662;6309;-7749
1215757;2;20;2;2418;-879;2078;-2535;-3863;7183;-7561
1215767;2;20;2;2418;-611;1891;-2872;-3643;6315;-6190
1215777;2;20;2;2418;-246;1905;-2804;-5490;8015;-6631
1215787;2;20;2;2418;-561;2170;-1907;-6850;8950;-6824
1215797;2;20;2;2418;-710;2109;-1566;-6920;9064;-6578
1215807;2;20;2;2418;-816;2205;-1328;-6103;9069;-6353
1215817;2;20;2;2418;-946;2254;-1211;-5032;8613;-5789
1215827;2;20;2;2418;-1159;2147;-1387;-4133;7921;-5179
1215837;2;20;2;2418;-1040;1731;-1449;-3959;7110;-4623
1215847;2;20;2;2418;-1113;1944;-2426;-5097;5951;-4244
1215857;2;20;2;2418;-1333;1774;-2410;-5919;6214;-4200
1215867;2;20;2;2418;-1220;1932;-2043;-5440;7082;-4964
1215877;2;20;2;2418;-1009;2224;-1712;-4605;7121;-5017
1215887;2;20;2;2418;-923;2227;-1875;-4625;6559;-4768
1215897;2;20;2;2418;-906;2078;-2015;-5143;6136;-4660
1215907;2;20;2;2418;-742;2109;-2037;-5123;5997;-4832
1215917;2;20;2;2418;-844;2267;-2172;-4680;5903;-4851
1215927;2;20;2;2419;-952;2173;-2085;-4852;5889;-4621
1215937;2;20;2;2419;-843;2444;-2032;-4989;5512;-4543
1215947;2;20;2;2419;-660;2533;-2090;-4976;5193;-4364
1215957;2;20;2;2419;-711;2560;-2038;-4852;5133;-3852
1215967;2;20;2;2419;-362;2563;-2041;-4663;4931;-3960
1215977;2;20;2;2419;-2;2790;-1886;-4440;4534;-3714
1215987;2;20;2;2419;336;2669;-1734;-4085;4215;-3492
1215997;2;20;2;2419;464;2828;-1600;-3907;4121;-3788
1216007;2;20;2;2419;232;2800;-1503;-3674;4149;-3998
1216017;2;20;2;2419;-171;2803;-1366;-3302;4251;-3911
1216027;2;20;2;2419;-348;2705;-1402;-2877;4290;-3666
1216037;2;20;2;2419;-409;2635;-1517;-2779;4605;-3546
1216047;2;20;2;2419;-452;2564;-1699;-2517;4984;-3518
1216057;2;20;2;2419;-361;2512;-1753;-1725;5553;-3765
1216067;2;20;2;2419;-359;2676;-1780;-757;6037;-4083
1216077;2;20;2;2419;-247;2628;-1751;-104;6174;-4157
1216087;2;20;2;2419;-284;2857;-1817;-34;5970;-4230
1216097;2;20;2;2419;-314;3013;-1683;-248;5596;-4005
1216107;2;20;2;2419;-340;3096;-1484;-270;4930;-3603
1216117;2;20;2;2419;-508;3205;-1400;-69;4204;-3138
1216127;2;20;2;2419;-601;3236;-1391;208;3647;-2648
1216137;2;20;2;2419;-537;3127;-1652;437;3968;-2734
1216147;2;20;2;2419;-714;3237;-1583;880;4734;-3040
1216157;2;20;2;2419;-774;3217;-1685;1637;5247;-3074
1216167;2;20;2;2419;-773;3166;-1961;2321;5532;-2966
1216177;2;20;2;2419;-733;3029;-2412;2435;5937;-2931
1216187;2;20;2;2419;-749;2949;-2709;1989;6609;-3215
1216197;2;20;2;2419;-809;2847;-2745;1274;7245;-3401
1216207;2;20;2;2419;-803;2755;-2724;550;7575;-3549
1216217;2;20;2;2419;-827;2771;-2787;-46;7753;-3617
1216227;2;20;2;2419;-870;2737;-2718;-458;7783;-3501
1216237;2;20;2;2419;-913;2762;-2651;-753;7569;-3257
1216247;2;20;2;2419;-968;2804;-2678;-958;7266;-2865
1216257;2;20;2;2419;-1001;2795;-2795;-1139;7241;-2751
1216267;2;20;2;2419;-1004;2859;-2778;-1160;7395;-2805
1216277;2;20;2;2419;-766;3071;-2795;-1009;7481;-3070
1216287;2;20;2;2419;-466;3327;-2752;-414;7281;-3439
1216297;2;20;2;2419;-242;3538;-2782;670;6815;-3836
1216307;2;20;2;2419;-285;3640;-2872;2083;6225;-4209
1216317;2;20;2;2419;-445;3644;-3042;3641;5653;-4349
1216327;2;20;2;2419;-705;3644;-3414;4892;5156;-3785
1216337;2;20;2;2419;-924;3553;-3965;4982;4769;-2622
1216347;2;20;2;2419;-817;3369;-4357;3727;4464;-1348
1216357;2;20;2;2419;-489;3113;-4570;1296;4158;-99
1216367;2;20;2;2419;-61;2953;-4398;-1362;3808;672
1216377;2;20;2;2419;269;2912;-3865;-3301;3434;853
1216387;2;20;2;2419;434;2901;-3202;-3710;2904;766
1216397;2;20;2;2419;512;2856;-2610;-2673;2091;656
1216407;2;20;2;2419;518;2738;-2304;-910;1023;698
1216417;2;20;2;2419;523;2490;-2287;924;34;773
1216427;2;20;2;2420;481;2181;-2591;2215;-557;756
1216437;2;20;2;2420;449;2112;-2767;2625;-711;629
1216447;2;20;2;2420;507;2082;-2816;2672;-739;615
1216457;2;20;2;2420;567;2132;-2907;2686;-798;651
1216467;2;20;2;2420;652;2190;-3005;2953;-686;694
1216477;2;20;2;2420;746;2236;-3117;3362;-460;577
1216487;2;20;2;2420;927;2398;-3116;3539;-403;515
1216497;2;20;2;2420;1084;2413;-3242;3676;-634;565
1216507;2;20;2;2420;1115;2348;-3499;3717;-738;395
1216517;2;20;2;2420;1056;2207;-3678;3643;-684;150
1216527;2;20;2;2420;1061;2169;-3794;3456;-709;-93
1216537;2;20;2;2420;1017;2132;-3863;3247;-847;-113
1216547;2;20;2;2420;881;2016;-3962;2929;-810;-197
1216557;2;20;2;2420;631;2007;-3895;2492;-589;-270
1216567;2;20;2;2420;449;2004;-3720;2039;-392;-192
1216577;2;20;2;2420;388;2048;-3580;1676;-178;-74
1216587;2;20;2;2420;361;2037;-3587;1565;119;33
1216597;2;20;2;2420;381;2058;-3547;1645;502;-30
1216607;2;20;2;2420;338;2122;-3422;1728;757;-78
1216617;2;20;2;2420;406;2121;-3400;1608;863;-43
1216627;2;20;2;2420;487;2160;-3521;1292;1159;-186
1216637;2;20;2;2420;515;2209;-3456;1186;1433;-453
1216647;2;20;2;2420;490;2216;-3365;1248;1477;-511
1216657;2;20;2;2420;413;2258;-3260;1149;1275;-456
1216667;2;20;2;2420;471;2269;-3307;910;970;-258
1216677;2;20;2;2420;616;2200;-3468;775;923;-349
1216687;2;20;2;2420;697;2269;-3400;918;731;-483
1216697;2;20;2;2420;616;2297;-3383;1175;231;-358
1216707;2;20;2;2420;493;2216;-3491;1361;-323;-143
1216717;2;20;2;2420;439;2105;-3593;1378;-653;-7
1216727;2;20;2;2420;400;1984;-3789;1192;-737;34
1216737;2;20;2;2420;336;1897;-3897;951;-370;-139
1216747;2;20;2;2420;272;1930;-3742;677;-20;-232
1216757;2;20;2;2420;264;2040;-3549;390;176;-198
1216767;2;20;2;2420;329;2129;-3421;339;253;-95
1216777;2;20;2;2420;382;2184;-3381;479;244;4
1216787;2;20;2;2420;473;2228;-3414;695;195;104
1216797;2;20;2;2420;592;2184;-3555;969;112;118
1216807;2;20;2;2420;720;2128;-3736;1119;107;-59
1216817;2;20;2;2420;715;2121;-3900;1085;134;-191
1216827;2;20;2;2420;625;2090;-3931;649;205;-282
1216837;2;20;2;2420;518;2109;-3848;115;293;-292
1216847;2;20;2;2420;416;2131;-3762;-272;481;-260
1216857;2;20;2;2420;344;2213;-3626;-553;747;-253
1216867;2;20;2;2420;357;2252;-3539;-709;955;-191
1216877;2;20;2;2420;376;2258;-3455;-819;1136;-196
1216887;2;20;2;2420;425;2249;-3378;-755;1263;-199
1216897;2;20;2;2420;512;2226;-3349;-629;1390;-288
1216907;2;20;2;2420;592;2189;-3364;-461;1489;-465
1216917;2;20;2;2420;629;2189;-3427;-328;1479;-580
