timestamp;subject_id;activity;label;seq;ax;ay;az;gx;gy;gz
1869927;2;20;2;3727;1038;3973;111;-237;10;-65
1869937;2;20;2;3727;1036;3985;141;-396;129;-122
1869947;2;20;2;3727;1019;4010;260;-503;174;-148
1869957;2;20;2;3727;1000;4043;390;-518;114;-151
1869967;2;20;2;3727;973;4041;472;-431;27;-121
1869977;2;20;2;3727;989;4049;517;-276;-122;-79
1869987;2;20;2;3727;1002;4034;456;-136;-300;-19
1869997;2;20;2;3727;1035;4020;321;-22;-338;-10
1870007;2;20;2;3727;1051;4004;236;10;-249;-43
1870017;2;20;2;3727;1058;4005;236;-47;-162;-90
1870027;2;20;2;3727;1047;4034;304;-164;-151;-113
1870037;2;20;2;3727;1003;4065;333;-224;-196;-97
1870047;2;20;2;3727;992;4062;391;-212;-260;-68
1870057;2;20;2;3727;980;4052;376;-166;-330;-48
1870067;2;20;2;3727;990;4040;285;-60;-256;-62
1870077;2;20;2;3727;990;4016;219;1;-98;-92
1870087;2;20;2;3727;1042;4003;225;-61;-10;-107
1870097;2;20;2;3727;1049;4018;267;-203;-38;-121
1870107;2;20;2;3727;1067;4039;252;-248;-58;-158
1870117;2;20;2;3727;1039;4017;265;-193;-49;-176
1870127;2;20;2;3727;1006;4002;264;-250;-149;-178
1870137;2;20;2;3727;949;4033;302;-342;-158;-192
1870147;2;20;2;3727;958;4043;399;-278;-195;-136
1870157;2;20;2;3727;963;4050;455;-207;-270;-101
1870167;2;20;2;3727;992;4082;395;-100;-284;-95
1870177;2;20;2;3727;1021;4061;346;25;-286;-92
1870187;2;20;2;3727;1054;4067;312;28;-300;-78
1870197;2;20;2;3727;1068;4065;308;-118;-329;-55
1870207;2;20;2;3727;1084;4051;317;-222;-384;-53
1870217;2;20;2;3727;1094;4024;172;-74;-369;-56
1870227;2;20;2;3727;1071;3961;35;-31;-138;-102
1870237;2;20;2;3727;1029;3960;103;-295;71;-153
1870247;2;20;2;3727;1006;3997;362;-540;74;-137
1870257;2;20;2;3727;1009;4055;540;-453;-110;-70
1870267;2;20;2;3727;1031;4061;507;-137;-292;-11
1870277;2;20;2;3727;1048;4011;408;57;-392;-17
1870287;2;20;2;3727;1012;3992;308;90;-400;-50
1870297;2;20;2;3727;1000;3974;145;128;-156;-131
1870307;2;20;2;3727;991;4005;141;87;132;-202
1870317;2;20;2;3727;988;4052;303;-145;197;-196
1870327;2;20;2;3727;1014;4107;433;-314;29;-114
1870337;2;20;2;3727;1042;4120;409;-237;-134;-32
1870347;2;20;2;3727;1064;4074;286;-141;-187;-8
1870357;2;20;2;3727;1069;4026;191;-205;-107;-33
1870367;2;20;2;3727;1066;4007;180;-376;-8;-73
1870377;2;20;2;3727;1003;4008;235;-469;99;-115
1870387;2;20;2;3727;981;4012;396;-435;102;-107
1870397;2;20;2;3727;980;4008;498;-316;-58;-44
1870407;2;20;2;3727;1009;4009;489;-145;-269;13
1870417;2;20;2;3727;1029;4010;431;9;-417;28
1870427;2;20;2;3728;1043;3996;340;147;-424;-9
1870437;2;20;2;3728;1031;3991;190;263;-295;-64
1870447;2;20;2;3728;1071;4013;121;242;-123;-130
1870457;2;20;2;3728;1051;4024;111;1;-66;-176
1870467;2;20;2;3728;1010;4049;222;-224;-76;-181
1870477;2;20;2;3728;945;4075;349;-297;-165;-136
1870487;2;20;2;3728;971;4079;377;-193;-298;-54
1870497;2;20;2;3728;989;4037;296;-77;-317;-29
1870507;2;20;2;3728;1001;4022;232;-97;-241;-64
1870517;2;20;2;3728;1018;4035;287;-153;-184;-97
1870527;2;20;2;3728;1024;4064;280;-169;-173;-110
1870537;2;20;2;3728;1003;4077;331;-150;-228;-87
1870547;2;20;2;3728;1008;4078;323;-129;-339;-61
1870557;2;20;2;3728;1011;4059;249;-66;-356;-53
1870567;2;20;2;3728;1018;4021;186;-44;-269;-70
1870577;2;20;2;3728;1035;4007;144;-90;-180;-99
1870587;2;20;2;3728;1041;3994;142;-170;-76;-133
1870597;2;20;2;3728;1021;4017;235;-222;22;-162
1870607;2;20;2;3728;989;4021;333;-263;-43;-139
1870617;2;20;2;3728;992;4035;404;-247;-223;-95
1870627;2;20;2;3728;972;4037;300;-62;-288;-81
1870637;2;20;2;3728;987;4039;206;50;-177;-115
1870647;2;20;2;3728;993;4024;206;-13;-85;-149
1870657;2;20;2;3728;981;4060;262;-180;-98;-173
1870667;2;20;2;3728;951;4111;380;-253;-215;-130
1870677;2;20;2;3728;947;4120;411;-206;-375;-44
1870687;2;20;2;3728;994;4081;362;-162;-399;20
1870697;2;20;2;3728;1041;4031;291;-181;-297;14
1870707;2;20;2;3728;1113;4003;242;-158;-290;-1
1870717;2;20;2;3728;1108;3971;157;-110;-275;-36
1870727;2;20;2;3728;1065;3979;150;-223;-187;-82
1870737;2;20;2;3728;1003;3980;197;-347;-82;-132
1870747;2;20;2;3728;968;4040;202;-267;63;-171
1870757;2;20;2;3728;995;4040;252;-237;96;-157
1870767;2;20;2;3728;978;4058;268;-304;106;-163
1870777;2;20;2;3728;963;4035;368;-342;67;-142
1870787;2;20;2;3728;971;4055;467;-293;-41;-101
1870797;2;20;2;3728;976;4066;488;-156;-177;-41
1870807;2;20;2;3728;1011;4044;457;-58;-315;11
1870817;2;20;2;3728;1011;4037;411;-29;-446;50
1870827;2;20;2;3728;1050;4040;353;2;-512;62
1870837;2;20;2;3728;1042;4053;234;18;-483;43
1870847;2;20;2;3728;1056;4025;57;9;-279;-22
1870857;2;20;2;3728;1050;4027;65;-131;-50;-88
1870867;2;20;2;3728;1025;4043;155;-338;76;-137
1870877;2;20;2;3728;1012;4051;300;-370;95;-137
1870887;2;20;2;3728;1013;4071;337;-286;66;-119
1870897;2;20;2;3728;1019;4043;329;-212;26;-100
1870907;2;20;2;3728;1033;4050;342;-241;-21;-89
1870917;2;20;2;3728;1032;4070;393;-274;-111;-77
1870927;2;20;2;3729;1004;4087;410;-239;-203;-51
1870937;2;20;2;3729;994;4060;374;-169;-246;-30
1870947;2;20;2;3729;993;4052;338;-142;-239;-19
1870957;2;20;2;3729;1023;4044;333;-129;-230;-10
1870967;2;20;2;3729;1024;4038;345;-145;-241;-6
1870977;2;20;2;3729;1055;4020;287;-147;-221;-8
1870987;2;20;2;3729;1055;3999;287;-164;-167;-38
1870997;2;20;2;3729;1050;4002;254;-218;-80;-80
1871007;2;20;2;3729;1030;3998;358;-273;-62;-81
1871017;2;20;2;3729;1024;4021;458;-320;-140;-70
1871027;2;20;2;3729;998;4030;501;-264;-225;-47
1871037;2;20;2;3729;1017;4004;474;-172;-322;-26
1871047;2;20;2;3729;1026;4002;398;-113;-366;-34
1871057;2;20;2;3729;1042;4005;341;-73;-356;-48
1871067;2;20;2;3729;1052;4000;334;-54;-348;-66
1871077;2;20;2;3729;1050;4012;308;-73;-343;-91
1871087;2;20;2;3729;1053;4014;267;-74;-342;-106
1871097;2;20;2;3729;1024;4021;239;-136;-350;-123
1871107;2;20;2;3729;1021;4044;257;-205;-369;-122
1871117;2;20;2;3729;1005;4046;314;-148;-373;-102
1871127;2;20;2;3729;1007;4029;315;-88;-352;-80
1871137;2;20;2;3729;1006;4037;342;-115;-343;-82
1871147;2;20;2;3729;1034;4052;340;-65;-347;-79
1871157;2;20;2;3729;1041;4059;341;-10;-359;-75
1871167;2;20;2;3729;1047;4058;351;-52;-416;-60
1871177;2;20;2;3729;1056;4029;268;-138;-402;-65
1871187;2;20;2;3729;1088;3996;186;-195;-342;-90
1871197;2;20;2;3729;1088;3980;159;-92;-252;-129
1871207;2;20;2;3729;1043;4002;262;-87;-188;-146
1871217;2;20;2;3729;974;4016;418;-133;-215;-125
1871227;2;20;2;3729;944;4032;460;-42;-318;-60
1871237;2;20;2;3729;976;4018;411;36;-425;-9
1871247;2;20;2;3729;1029;3998;337;72;-468;5
1871257;2;20;2;3729;1048;3987;230;138;-363;-49
1871267;2;20;2;3729;1077;3990;175;177;-180;-131
1871277;2;20;2;3729;1060;4000;260;130;-117;-173
1871287;2;20;2;3729;1016;4035;325;84;-164;-174
1871297;2;20;2;3729;983;4033;356;104;-223;-154
1871307;2;20;2;3729;965;4041;328;178;-264;-123
1871317;2;20;2;3729;985;4021;305;215;-258;-98
1871327;2;20;2;3729;1007;4038;336;190;-292;-83
1871337;2;20;2;3729;1021;4052;344;192;-361;-68
1871347;2;20;2;3729;1015;4024;291;190;-425;-66
1871357;2;20;2;3729;1034;4025;166;155;-397;-89
1871367;2;20;2;3729;1026;4010;152;153;-289;-134
1871377;2;20;2;3729;1019;4013;190;154;-247;-163
1871387;2;20;2;3729;1011;4024;253;143;-297;-147
1871397;2;20;2;3729;982;4020;237;125;-390;-127
1871407;2;20;2;3729;963;4008;183;144;-400;-128
1871417;2;20;2;3729;974;3998;114;176;-292;-170
1871427;2;20;2;3730;980;4019;138;144;-203;-213
1871437;2;20;2;3730;974;4019;203;75;-230;-228
1871447;2;20;2;3730;960;4032;242;57;-346;-208
1871457;2;20;2;3730;948;4043;166;91;-417;-195
1871467;2;20;2;3730;962;4022;89;126;-384;-219
1871477;2;20;2;3730;969;4023;111;86;-337;-253
1871487;2;20;2;3730;959;4045;172;37;-377;-275
1871497;2;20;2;3730;921;4061;166;39;-445;-292
1871507;2;20;2;3730;903;4047;162;91;-469;-294
1871517;2;20;2;3730;872;4061;132;133;-477;-299
1871527;2;20;2;3730;897;4059;114;110;-485;-294
1871537;2;20;2;3730;880;4081;156;92;-516;-277
1871547;2;20;2;3730;898;4071;187;99;-582;-250
1871557;2;20;2;3730;914;4043;180;103;-667;-233
1871567;2;20;2;3730;946;4031;171;120;-785;-211
1871577;2;20;2;3730;934;4007;68;147;-875;-208
1871587;2;20;2;3730;917;3968;27;165;-837;-242
1871597;2;20;2;3730;913;3963;82;161;-770;-288
1871607;2;20;2;3730;893;3997;195;134;-763;-326
1871617;2;20;2;3730;882;4032;311;232;-872;-334
1871627;2;20;2;3730;882;4076;350;468;-980;-346
1871637;2;20;2;3730;879;4096;232;743;-1013;-377
1871647;2;20;2;3730;905;4107;127;856;-997;-428
1871657;2;20;2;3730;968;4125;68;788;-982;-469
1871667;2;20;2;3730;1007;4124;56;633;-1022;-509
1871677;2;20;2;3730;1033;4151;4;560;-1110;-525
1871687;2;20;2;3730;1029;4139;-56;530;-1140;-567
1871697;2;20;2;3730;996;4147;-5;406;-1139;-637
1871707;2;20;2;3730;940;4158;62;230;-1221;-686
1871717;2;20;2;3730;902;4178;111;311;-1309;-681
1871727;2;20;2;3730;835;4142;128;478;-1345;-651
1871737;2;20;2;3730;794;4085;67;538;-1328;-624
1871747;2;20;2;3730;813;4014;61;355;-1253;-589
1871757;2;20;2;3730;862;4107;70;246;-1275;-564
1871767;2;20;2;3730;870;4057;10;400;-1257;-483
1871777;2;20;2;3730;875;3985;-123;466;-1068;-441
1871787;2;20;2;3730;924;3921;-94;178;-856;-397
1871797;2;20;2;3730;1002;3935;81;-283;-709;-416
1871807;2;20;2;3730;1036;4006;261;-530;-555;-441
1871817;2;20;2;3730;988;4038;464;-458;-417;-457
1871827;2;20;2;3730;972;4111;557;-307;-408;-459
1871837;2;20;2;3730;880;4162;548;-101;-547;-378
1871847;2;20;2;3730;737;4167;423;160;-704;-236
1871857;2;20;2;3730;594;4162;173;384;-703;-74
1871867;2;20;2;3730;586;4129;-65;404;-512;77
1871877;2;20;2;3730;594;4084;-246;107;-278;172
1871887;2;20;2;3730;650;4092;-325;-346;9;178
1871897;2;20;2;3730;690;4103;-230;-765;305;139
1871907;2;20;2;3730;702;4131;19;-1087;474;64
1871917;2;20;2;3730;695;4153;237;-1194;499;18
1871927;2;20;2;3731;700;4145;413;-1083;456;-34
1871937;2;20;2;3731;716;4162;539;-859;375;-80
1871947;2;20;2;3731;749;4162;581;-554;220;-131
1871957;2;20;2;3731;767;4140;596;-168;52;-159
1871967;2;20;2;3731;794;4157;493;104;-156;-148
1871977;2;20;2;3731;790;4172;327;222;-314;-126
1871987;2;20;2;3731;740;4200;187;257;-428;-42
1871997;2;20;2;3731;758;4119;43;125;-431;49
1872007;2;20;2;3731;764;4191;-7;-236;-379;112
1872017;2;20;2;3731;796;4188;45;-554;-406;284
1872027;2;20;2;3731;734;4079;85;-739;-520;431
1872037;2;20;2;3731;789;4171;165;-1114;-327;349
1872047;2;20;2;3731;823;4130;316;-975;-231;387
1872057;2;20;2;3731;847;4087;410;-718;-330;383
1872067;2;20;2;3731;849;4074;401;-569;-386;374
1872077;2;20;2;3731;862;4013;410;-380;-370;368
1872087;2;20;2;3731;836;3999;384;-163;-319;364
1872097;2;20;2;3731;837;4000;362;-24;-345;393
1872107;2;20;2;3731;857;4013;283;57;-409;440
1872117;2;20;2;3731;862;4020;163;98;-349;450
1872127;2;20;2;3731;842;4011;92;15;-151;428
1872137;2;20;2;3731;829;4024;127;-221;55;383
1872147;2;20;2;3731;801;4060;269;-370;76;396
1872157;2;20;2;3731;775;4114;362;-330;-26;434
1872167;2;20;2;3731;752;4158;435;-271;-153;500
1872177;2;20;2;3731;730;4133;431;-159;-291;573
1872187;2;20;2;3731;714;4143;356;-12;-306;603
1872197;2;20;2;3731;749;4138;266;81;-242;624
1872207;2;20;2;3731;805;4140;226;15;-189;622
1872217;2;20;2;3731;818;4148;222;-139;-173;622
1872227;2;20;2;3731;865;4171;279;-244;-201;607
1872237;2;20;2;3731;846;4152;234;-236;-228;600
1872247;2;20;2;3731;885;4141;190;-172;-231;620
1872257;2;20;2;3731;916;4117;196;-127;-292;633
1872267;2;20;2;3731;915;4071;187;-59;-452;697
1872277;2;20;2;3731;909;4036;116;-12;-604;779
1872287;2;20;2;3731;909;3976;51;-80;-808;882
1872297;2;20;2;3731;909;3911;-7;-145;-1044;994
1872307;2;20;2;3731;917;3842;-105;-189;-1225;1114
1872317;2;20;2;3731;926;3696;-290;-205;-1304;1185
1872327;2;20;2;3731;947;3631;-467;-355;-1191;1147
1872337;2;20;2;3731;993;3521;-306;-515;-1068;1206
1872347;2;20;2;3731;1110;3409;-222;-429;-1093;1169
1872357;2;20;2;3731;1173;3501;-160;-13;-812;924
1872367;2;20;2;3731;1410;3518;90;551;-517;692
1872377;2;20;2;3731;1506;3754;305;1218;-190;263
1872387;2;20;2;3731;1509;3951;443;1776;-77;-113
1872397;2;20;2;3731;1387;4073;408;2138;-126;-360
1872407;2;20;2;3731;1266;4251;277;2329;-149;-536
1872417;2;20;2;3731;1105;4438;136;2471;-90;-463
1872427;2;20;2;3732;1007;4611;12;2587;-186;-165
1872437;2;20;2;3732;1001;4651;-265;2810;-314;183
1872447;2;20;2;3732;1024;4356;-710;2467;-249;455
1872457;2;20;2;3732;1138;4009;-1051;1308;252;433
1872467;2;20;2;3732;1228;3773;-882;-113;1209;194
1872477;2;20;2;3732;1322;3689;-224;-1417;2124;-167
1872487;2;20;2;3732;1283;3893;1099;-1087;2966;-432
1872497;2;20;2;3732;1353;4017;2024;675;2941;-319
1872507;2;20;2;3732;1593;3910;1966;1491;1987;-174
1872517;2;20;2;3732;1886;3800;1452;1483;1017;-253
1872527;2;20;2;3732;1894;3899;935;1375;585;-525
1872537;2;20;2;3732;1635;4151;701;1534;436;-632
1872547;2;20;2;3732;1308;4330;469;2012;144;-318
1872557;2;20;2;3732;1017;4435;-12;2176;-238;298
1872567;2;20;2;3732;997;4349;-418;1325;-586;897
1872577;2;20;2;3732;1050;4226;-671;-197;-700;1174
1872587;2;20;2;3732;1163;4124;-649;-1606;-573;1105
1872597;2;20;2;3732;1250;3915;-471;-2411;-214;936
1872607;2;20;2;3732;1251;3809;10;-2657;127;595
1872617;2;20;2;3732;1291;3758;771;-2325;44;470
1872627;2;20;2;3732;1313;3813;1348;-601;-289;482
1872637;2;20;2;3732;1406;3582;1082;644;-941;630
1872647;2;20;2;3732;1617;3326;648;786;-1480;544
1872657;2;20;2;3732;1614;3401;303;690;-1544;352
1872667;2;20;2;3732;1585;3528;141;657;-1276;77
1872677;2;20;2;3732;1540;3662;135;667;-1043;-162
1872687;2;20;2;3732;1446;3821;199;592;-1060;-341
1872697;2;20;2;3732;1337;3964;191;475;-1309;-415
1872707;2;20;2;3732;1209;4116;47;372;-1559;-412
1872717;2;20;2;3732;1155;4162;-87;290;-1696;-341
1872727;2;20;2;3732;1132;4194;-192;84;-1802;-251
1872737;2;20;2;3732;1177;4217;-190;-397;-1971;-132
1872747;2;20;2;3732;1203;4218;-121;-841;-2159;-42
1872757;2;20;2;3732;1236;4215;-63;-1115;-2308;33
1872767;2;20;2;3732;1203;4163;-37;-1410;-2487;103
1872777;2;20;2;3732;1268;4074;-45;-1685;-2682;193
1872787;2;20;2;3732;1314;4012;-34;-1749;-2925;323
1872797;2;20;2;3732;1406;3939;-75;-1668;-3090;424
1872807;2;20;2;3732;1506;3876;-49;-1439;-3150;435
1872817;2;20;2;3732;1737;3914;-23;-1047;-3124;203
1872827;2;20;2;3732;1819;4177;95;-492;-3097;-115
1872837;2;20;2;3732;1916;4323;120;-76;-3191;-384
1872847;2;20;2;3732;1803;4430;43;-307;-3490;-671
1872857;2;20;2;3732;1545;4618;-239;-832;-4113;-721
1872867;2;20;2;3732;1264;4796;-678;-1057;-4648;-516
1872877;2;20;2;3732;1102;4936;-1203;-1267;-4632;-280
1872887;2;20;2;3732;955;4966;-1349;-1774;-4096;-11
1872897;2;20;2;3732;879;4738;-1308;-2251;-3475;106
1872907;2;20;2;3732;904;4391;-1239;-2761;-3158;261
1872917;2;20;2;3732;882;4120;-1109;-3314;-3103;343
1872927;2;20;2;3733;772;3924;-765;-3233;-2975;392
1872937;2;20;2;3733;612;3733;-389;-2505;-2825;355
1872947;2;20;2;3733;556;3497;-113;-1730;-2893;320
1872957;2;20;2;3733;609;3318;-35;-1164;-2996;123
1872967;2;20;2;3733;741;3249;37;-735;-2926;-235
1872977;2;20;2;3733;941;3341;221;-331;-2894;-773
1872987;2;20;2;3733;1082;3511;333;77;-2983;-1179
1872997;2;20;2;3733;1169;3546;353;367;-3196;-1536
1873007;2;20;2;3733;1241;3703;287;453;-3340;-1934
1873017;2;20;2;3733;1187;3922;314;479;-3365;-2213
1873027;2;20;2;3733;1028;4180;264;457;-3447;-2289
1873037;2;20;2;3733;914;4474;237;519;-3691;-2096
1873047;2;20;2;3733;731;4880;180;765;-3968;-1669
1873057;2;20;2;3733;575;5012;-93;1353;-4232;-1101
1873067;2;20;2;3733;425;4834;-657;1623;-4256;-531
1873077;2;20;2;3733;347;4580;-1232;1258;-4030;-142
1873087;2;20;2;3733;313;4225;-1547;580;-3538;140
1873097;2;20;2;3733;362;3843;-1656;-557;-3010;302
1873107;2;20;2;3733;431;3580;-1505;-2039;-2486;390
1873117;2;20;2;3733;488;3460;-1024;-3397;-1919;394
1873127;2;20;2;3733;588;3513;-329;-4090;-1377;348
1873137;2;20;2;3733;699;3630;437;-3750;-1034;329
1873147;2;20;2;3733;891;3673;946;-2721;-996;309
1873157;2;20;2;3733;1008;3699;1133;-1531;-1173;272
1873167;2;20;2;3733;1075;3664;1048;-549;-1413;179
1873177;2;20;2;3733;1066;3742;843;312;-1455;-13
1873187;2;20;2;3733;1012;3808;606;1015;-1478;-180
1873197;2;20;2;3733;877;3911;365;1335;-1529;-262
1873207;2;20;2;3733;750;3998;144;1295;-1555;-300
1873217;2;20;2;3733;626;4090;-45;1229;-1412;-314
1873227;2;20;2;3733;541;4154;-170;1079;-1227;-214
1873237;2;20;2;3733;484;4234;-288;621;-1080;-123
1873247;2;20;2;3733;492;4241;-279;115;-946;54
1873257;2;20;2;3733;583;4219;-233;-321;-744;177
1873267;2;20;2;3733;691;4212;-139;-622;-464;230
1873277;2;20;2;3733;814;4156;-2;-774;-184;209
1873287;2;20;2;3733;941;4111;107;-814;61;124
1873297;2;20;2;3733;974;4066;185;-732;209;67
1873307;2;20;2;3733;991;3991;190;-626;218;89
1873317;2;20;2;3733;954;3905;105;-625;302;96
1873327;2;20;2;3733;908;3862;140;-617;590;46
1873337;2;20;2;3733;867;3864;189;-511;872;43
1873347;2;20;2;3733;814;3891;229;-279;1045;126
1873357;2;20;2;3733;774;3943;209;-29;1172;203
1873367;2;20;2;3733;710;3972;71;167;1314;287
1873377;2;20;2;3733;656;3969;-124;152;1624;298
1873387;2;20;2;3733;579;4008;-223;-54;1982;333
1873397;2;20;2;3733;525;4017;-251;-515;2226;468
1873407;2;20;2;3733;500;3967;-312;-1064;2436;664
1873417;2;20;2;3733;524;3922;-212;-1465;2581;857
1873427;2;20;2;3734;799;3992;-66;-1436;2663;852
1873437;2;20;2;3734;1222;4250;200;-858;2826;574
1873447;2;20;2;3734;1481;4415;516;-251;2663;270
1873457;2;20;2;3734;1415;4626;672;440;1846;73
1873467;2;20;2;3734;1117;4699;341;1419;878;144
1873477;2;20;2;3734;861;4666;-399;2545;485;254
1873487;2;20;2;3734;734;4661;-981;2918;751;355
1873497;2;20;2;3734;781;4627;-1353;2644;1402;270
1873507;2;20;2;3734;898;4605;-1426;1810;2169;139
1873517;2;20;2;3734;1003;4596;-1199;813;2884;-41
1873527;2;20;2;3734;1052;4560;-751;-1;3327;-144
1873537;2;20;2;3734;1080;4507;-336;-340;3626;-162
1873547;2;20;2;3734;1086;4383;22;-109;3824;-38
1873557;2;20;2;3734;1143;4296;230;679;3734;192
1873567;2;20;2;3734;1187;4053;49;1544;3501;533
1873577;2;20;2;3734;1243;3867;-276;1917;3255;774
1873587;2;20;2;3734;1245;3646;-604;1799;3009;1040
1873597;2;20;2;3734;1223;3454;-839;1260;2781;1254
1873607;2;20;2;3734;1216;3390;-963;522;2670;1395
1873617;2;20;2;3734;1244;3337;-973;-99;2751;1430
1873627;2;20;2;3734;1314;3385;-816;-446;2955;1341
1873637;2;20;2;3734;1414;3440;-532;-546;3156;1174
1873647;2;20;2;3734;1526;3500;-208;-402;3395;885
1873657;2;20;2;3734;1601;3615;180;97;3651;538
1873667;2;20;2;3734;1695;3707;413;896;3814;204
1873677;2;20;2;3734;1755;3864;548;1834;3861;-63
1873687;2;20;2;3734;1823;3945;535;2836;3832;-275
1873697;2;20;2;3734;1875;4092;425;3878;3870;-443
1873707;2;20;2;3734;1918;4208;149;4788;3795;-482
1873717;2;20;2;3734;1832;4316;-317;5221;3659;-390
1873727;2;20;2;3734;1693;4308;-932;5033;3539;-117
1873737;2;20;2;3734;1536;4167;-1557;3999;3685;264
1873747;2;20;2;3734;1475;3994;-1904;2253;4108;607
1873757;2;20;2;3734;1466;3785;-1878;142;4687;794
1873767;2;20;2;3734;1490;3673;-1456;-1757;5316;844
1873777;2;20;2;3734;1464;3606;-758;-3001;5675;897
1873787;2;20;2;3734;1382;3608;-12;-3338;5778;970
1873797;2;20;2;3734;1301;3559;559;-2624;5672;1164
1873807;2;20;2;3734;1331;3461;826;-1361;5405;1321
1873817;2;20;2;3734;1475;3368;780;-147;5010;1421
1873827;2;20;2;3734;1536;3310;480;786;4599;1407
1873837;2;20;2;3734;1575;3227;43;1392;4274;1351
1873847;2;20;2;3734;1590;3179;-439;1651;3973;1238
1873857;2;20;2;3734;1466;3159;-804;1374;3729;1104
1873867;2;20;2;3734;1335;3103;-1066;744;3469;973
1873877;2;20;2;3734;1288;3147;-1060;240;3256;876
1873887;2;20;2;3734;1444;3275;-875;425;2757;747
1873897;2;20;2;3734;1425;3447;-780;626;2160;551
1873907;2;20;2;3734;1044;3409;-820;691;1840;465
1873917;2;20;2;3734;530;3621;-675;809;1812;514
1873927;2;20;2;3735;184;3982;-448;1727;1792;988
1873937;2;20;2;3735;105;4257;-400;3626;2013;1491
1873947;2;20;2;3735;-1329;4907;-1481;4799;2517;2744
1873957;2;20;2;3735;566;3378;-1092;4268;2545;3196
1873967;2;20;2;3735;547;4432;-1110;4695;3526;2400
1873977;2;20;2;3735;1432;3688;-773;4121;3103;2500
1873987;2;20;2;3735;1894;3624;-509;3177;2455;1542
1873997;2;20;2;3735;2087;3695;198;2576;1725;741
1874007;2;20;2;3735;2061;3679;421;2516;1145;6
1874017;2;20;2;3735;1901;3630;574;3055;700;-649
1874027;2;20;2;3735;1713;3723;445;3984;75;-992
1874037;2;20;2;3735;1390;3854;-138;4702;-358;-1080
1874047;2;20;2;3735;1039;4036;-712;4693;-673;-949
1874057;2;20;2;3735;737;4183;-1319;4347;-797;-553
1874067;2;20;2;3735;668;4389;-1720;4603;-402;-86
1874077;2;20;2;3735;777;4176;-1938;4935;-14;362
1874087;2;20;2;3735;823;3805;-2192;4475;62;550
1874097;2;20;2;3735;810;3295;-2334;3613;180;474
1874107;2;20;2;3735;633;2955;-2184;2883;562;229
1874117;2;20;2;3735;362;2767;-1376;2983;1018;24
1874127;2;20;2;3735;137;2617;-566;4667;1315;-57
1874137;2;20;2;3735;65;2173;-534;5936;1094;-31
1874147;2;20;2;3735;174;1556;-849;6239;739;-100
1874157;2;20;2;3735;190;1196;-1037;6383;810;-273
1874167;2;20;2;3735;135;923;-1064;6813;1485;-674
1874177;2;20;2;3735;74;748;-774;7508;2610;-1146
1874187;2;20;2;3735;-24;538;-353;8454;3754;-1593
1874197;2;20;2;3735;-32;356;13;9667;4602;-2033
1874207;2;20;2;3735;159;165;241;10594;5166;-2492
1874217;2;20;2;3735;357;183;324;10883;5246;-2892
1874227;2;20;2;3735;620;327;-18;10779;4236;-3077
1874237;2;20;2;3735;428;566;-1026;10025;3216;-3211
1874247;2;20;2;3735;134;945;-1633;8886;2899;-3438
1874257;2;20;2;3735;-290;1893;-1797;8250;3154;-3311
1874267;2;20;2;3735;-177;2514;-1743;8856;3777;-3311
1874277;2;20;2;3735;256;3118;-1552;8780;3831;-3028
1874287;2;20;2;3735;298;4179;-1412;7416;3180;-2152
1874297;2;20;2;3735;572;4581;-1291;5637;1500;727
1874307;2;20;2;3735;2402;3654;-630;3644;-97;2650
1874317;2;20;2;3735;3471;3145;-882;1701;-15;1977
1874327;2;20;2;3735;3228;2689;-1025;-236;1524;309
1874337;2;20;2;3735;2355;2073;-443;-570;2605;-1401
1874347;2;20;2;3735;1288;1999;-267;623;2475;-2210
1874357;2;20;2;3735;311;1758;-776;2125;1810;-1761
1874367;2;20;2;3735;-109;1993;-1449;2973;1217;-1103
1874377;2;20;2;3735;86;2134;-1770;3168;1007;-275
1874387;2;20;2;3735;579;2515;-1719;3613;938;322
1874397;2;20;2;3735;1102;2732;-1862;4011;541;683
1874407;2;20;2;3735;1484;2739;-2124;4152;2;767
1874417;2;20;2;3735;1455;2662;-2187;4047;-189;346
1874427;2;20;2;3736;1159;2642;-2045;3913;-128;-72
1874437;2;20;2;3736;790;2788;-2020;3505;35;-357
1874447;2;20;2;3736;552;3072;-2171;2902;298;-308
1874457;2;20;2;3736;657;3379;-2396;2350;322;-164
1874467;2;20;2;3736;961;3600;-2820;2125;121;-47
1874477;2;20;2;3736;1384;3854;-2886;2006;-109;-213
1874487;2;20;2;3736;1569;3709;-2993;2247;-469;-490
1874497;2;20;2;3736;1685;3679;-3212;3016;-760;-824
1874507;2;20;2;3736;1842;3550;-3227;4017;-355;-1054
1874517;2;20;2;3736;2141;3094;-3225;4697;446;-1310
1874527;2;20;2;3736;2233;3037;-3726;4555;1326;-1615
1874537;2;20;2;3736;2111;3270;-4006;4479;2464;-1897
1874547;2;20;2;3736;1955;4140;-4063;3996;3500;-2024
1874557;2;20;2;3736;1364;5580;-3690;2974;3893;-1358
1874567;2;20;2;3736;848;6605;-3375;2850;3714;-166
1874577;2;20;2;3736;625;7273;-4024;3321;3231;756
1874587;2;20;2;3736;625;7462;-4852;4246;2795;1286
1874597;2;20;2;3736;798;6893;-6109;6226;2231;1311
1874607;2;20;2;3736;770;5720;-7351;7504;2132;1239
1874617;2;20;2;3736;136;4613;-8238;6312;2623;1155
1874627;2;20;2;3736;-465;3983;-8410;2706;4615;1414
1874637;2;20;2;3736;-564;3890;-7517;-1814;7722;1306
1874647;2;20;2;3736;-67;3960;-5856;-4912;10295;1164
1874657;2;20;2;3736;614;4110;-4311;-6176;11329;1024
1874667;2;20;2;3736;1128;3967;-3388;-6429;11258;709
1874677;2;20;2;3736;1275;3554;-2592;-5729;10953;115
1874687;2;20;2;3736;2307;2480;-2952;-3915;11157;-1100
1874697;2;20;2;3736;2883;2052;-2709;-3338;11374;-3370
1874707;2;20;2;3736;2306;2919;-1739;-2995;8646;-4672
1874717;2;20;2;3736;797;4861;-2349;-2048;3814;-3780
1874727;2;20;2;3736;-1142;7745;-4482;-1519;-563;65
1874737;2;20;2;3736;561;7227;-5074;-2970;-2797;4342
1874747;2;20;2;3736;2996;4879;-5005;-2182;-807;8084
1874757;2;20;2;3736;5000;5243;-5566;-1219;2758;10835
1874767;2;20;2;3736;6365;4846;-4789;-3301;2460;15697
1874777;2;20;2;3736;7010;2739;-6760;-6400;2164;21066
1874787;2;20;2;3736;6331;261;-7810;-12696;6464;22955
1874797;2;20;2;3736;6834;-2250;-6225;-20535;12311;21277
1874807;2;20;2;3736;7534;-4061;-2652;-27855;19499;16319
1874817;2;20;2;3736;7152;-1590;16681;-16230;24973;11133
1874827;2;20;2;3736;4867;41;8714;9112;15965;9806
1874837;2;20;2;3736;4081;-3455;3011;3652;6787;9562
1874847;2;20;2;3736;3179;-5000;870;478;3472;8058
1874857;2;20;2;3736;2013;-2760;-1146;5;2986;6147
1874867;2;20;2;3736;1431;-2197;-1017;-684;2971;5346
1874877;2;20;2;3736;667;-890;-1744;-2283;2888;4485
1874887;2;20;2;3736;1565;-578;-1193;-3013;4591;3813
1874897;2;20;2;3736;2869;97;-406;-5822;7760;1611
1874907;2;20;2;3736;3967;2179;2037;-11372;8975;-157
1874917;2;20;2;3736;4262;4839;4436;-14511;5127;1286
1874927;2;20;2;3737;4627;6643;4709;-10741;-1590;5129
1874937;2;20;2;3737;4860;6617;3103;-3667;-6221;8385
1874947;2;20;2;3737;4838;4763;110;3658;-9230;11429
1874957;2;20;2;3737;5027;1885;-3183;7291;-8427;13262
1874967;2;20;2;3737;5516;-1374;-5991;5727;-2739;12822
1874977;2;20;2;3737;6045;-4003;-6313;-1280;5927;9853
1874987;2;20;2;3737;6438;-5000;-3684;-11193;12719;6014
1874997;2;20;2;3737;5994;-4205;52;-19340;14499;3604
1875007;2;20;2;3737;4788;-2700;3238;-21347;13291;2712
1875017;2;20;2;3737;2998;247;8777;-8919;12485;3471
1875027;2;20;2;3737;3016;359;5166;197;7396;5183
1875037;2;20;2;3737;3109;316;2752;-3789;2047;6506
1875047;2;20;2;3737;3015;1023;1806;-5649;-1562;7204
1875057;2;20;2;3737;2544;1916;301;-3770;-3334;7308
1875067;2;20;2;3737;2145;1592;-1432;-1271;-2698;7192
1875077;2;20;2;3737;2516;-10;-2337;-176;-323;6860
1875087;2;20;2;3737;3096;-1343;-2330;-1419;2174;6274
1875097;2;20;2;3737;3203;-1762;-1644;-5784;3890;5852
1875107;2;20;2;3737;3538;-1455;257;-10698;4876;5732
1875117;2;20;2;3737;4354;-1050;2765;-12713;4666;5956
1875127;2;20;2;3737;5643;96;6800;-6275;3411;5140
1875137;2;20;2;3737;5166;2253;4501;-1486;-2655;7484
1875147;2;20;2;3737;6124;1231;1683;-4536;-10480;11215
1875157;2;20;2;3737;6666;54;-918;-5342;-15722;13107
1875167;2;20;2;3737;7539;-2278;-3934;-1429;-15840;10638
1875177;2;20;2;3737;8384;-3417;-6187;5404;-9144;5624
1875187;2;20;2;3737;9910;-7423;-5862;5287;287;3289
1875197;2;20;2;3737;8908;-9966;4;-3151;10372;-613
1875207;2;20;2;3737;5505;-6021;5766;-2779;12932;-3244
1875217;2;20;2;3737;4411;-4271;5403;1405;9291;-2399
1875227;2;20;2;3737;3751;-3371;2971;2411;6907;-2997
1875237;2;20;2;3737;2917;-2042;1872;2518;5902;-4308
1875247;2;20;2;3737;1922;-447;1536;1705;4390;-4238
1875257;2;20;2;3737;1407;956;1872;417;2462;-3307
1875267;2;20;2;3737;1501;1569;1520;-2464;-218;-1353
1875277;2;20;2;3737;1758;2172;1493;-6081;-1888;99
1875287;2;20;2;3737;2398;2293;1147;-7203;-2933;846
1875297;2;20;2;3737;2888;2572;827;-8669;-3402;504
1875307;2;20;2;3737;3040;2849;896;-6432;-3118;-332
1875317;2;20;2;3737;3020;2306;416;-2341;-2418;-490
1875327;2;20;2;3737;3154;1154;76;1218;-1944;-791
1875337;2;20;2;3737;3260;146;-260;3820;-1528;-932
1875347;2;20;2;3737;3519;-747;-587;4687;-949;-375
1875357;2;20;2;3737;3830;-1271;-931;3157;-210;731
1875367;2;20;2;3737;4439;-1599;-789;-583;650;2243
1875377;2;20;2;3737;5879;-1921;701;-4092;879;3390
1875387;2;20;2;3737;6946;-1720;2070;-3915;-218;3532
1875397;2;20;2;3737;7537;-1834;2016;-2496;-2170;2837
1875407;2;20;2;3737;6859;-1842;1116;-2412;-3563;1505
1875417;2;20;2;3737;5550;-1684;502;-2203;-3441;466
1875427;2;20;2;3738;4492;-1512;164;-963;-2235;-190
1875437;2;20;2;3738;3813;-1139;161;307;-735;-599
1875447;2;20;2;3738;3457;-702;427;712;242;-628
1875457;2;20;2;3738;3462;-410;660;7;363;-381
1875467;2;20;2;3738;3760;23;831;-1128;-132;-498
1875477;2;20;2;3738;4075;242;779;-1427;-593;-741
1875487;2;20;2;3738;4206;360;666;-866;-999;-1141
1875497;2;20;2;3738;4093;276;358;-7;-1399;-1354
1875507;2;20;2;3738;3987;-28;166;472;-1877;-1173
1875517;2;20;2;3738;3912;-215;108;439;-2280;-973
1875527;2;20;2;3738;3994;-222;320;85;-2348;-800
1875537;2;20;2;3738;4292;-165;836;-63;-2347;-699
1875547;2;20;2;3738;4725;-67;1312;148;-2876;-590
1875557;2;20;2;3738;5181;-109;1543;675;-3515;-619
1875567;2;20;2;3738;5389;-169;1334;1337;-4560;-478
1875577;2;20;2;3738;5581;-739;269;743;-5982;-207
1875587;2;20;2;3738;5376;-1124;-539;-386;-6692;-389
1875597;2;20;2;3738;4931;-1443;-1072;-130;-6359;-706
1875607;2;20;2;3738;4537;-1489;-1182;1233;-5250;-1151
1875617;2;20;2;3738;4147;-1605;-1269;2211;-4250;-1124
1875627;2;20;2;3738;3759;-1477;-1437;2169;-3229;-1183
1875637;2;20;2;3738;3678;-1129;-1517;1453;-1932;-1050
1875647;2;20;2;3738;3694;-722;-1477;324;-642;-1081
1875657;2;20;2;3738;3746;-326;-1510;-555;20;-968
1875667;2;20;2;3738;4245;-167;-1493;-966;509;-1084
1875677;2;20;2;3738;4886;-306;-1207;-1476;1336;-1676
1875687;2;20;2;3738;5242;-559;-9;-1916;2561;-2679
1875697;2;20;2;3738;5184;-614;1467;-451;3010;-3634
1875707;2;20;2;3738;4703;-864;1439;997;1775;-3958
1875717;2;20;2;3738;4088;-1276;733;716;102;-3709
1875727;2;20;2;3738;3672;-1553;200;263;-1039;-3384
1875737;2;20;2;3738;3579;-1436;-380;315;-1845;-3219
1875747;2;20;2;3738;3620;-1241;-947;1013;-2031;-3345
1875757;2;20;2;3738;4060;-1187;-1362;1846;-1521;-3500
1875767;2;20;2;3738;4695;-1140;-1399;1955;-386;-3952
1875777;2;20;2;3738;5277;-900;-797;1072;537;-4425
1875787;2;20;2;3738;5781;-641;-155;311;701;-4747
1875797;2;20;2;3738;5962;-530;-28;255;297;-4919
1875807;2;20;2;3738;5989;-393;-35;390;-357;-5083
1875817;2;20;2;3738;5678;-289;-253;678;-1024;-5247
1875827;2;20;2;3738;5283;-340;-280;945;-1539;-5419
1875837;2;20;2;3738;4995;-211;-262;829;-1990;-5600
1875847;2;20;2;3738;4709;55;-226;703;-2447;-5564
1875857;2;20;2;3738;4428;254;-196;872;-2964;-5306
1875867;2;20;2;3738;4265;209;-681;1051;-3167;-5120
1875877;2;20;2;3738;4267;440;-1067;893;-2394;-5635
1875887;2;20;2;3738;4316;578;-1188;560;-1440;-6146
1875897;2;20;2;3738;4396;746;-998;-196;-1191;-6552
1875907;2;20;2;3738;4357;953;-810;-687;-1435;-6889
1875917;2;20;2;3738;4197;1072;-704;-1214;-1430;-7268
1875927;2;20;2;3739;3951;1188;-320;-1625;-938;-7728
1875937;2;20;2;3739;3818;1245;303;-1378;-651;-8044
1875947;2;20;2;3739;3595;1366;532;-750;-1404;-7846
1875957;2;20;2;3739;3357;1351;303;1;-2414;-7437
1875967;2;20;2;3739;3236;1168;-129;674;-2907;-7015
1875977;2;20;2;3739;3180;1149;-583;944;-3151;-6675
1875987;2;20;2;3739;3156;1209;-1059;481;-2983;-6595
1875997;2;20;2;3739;3174;1375;-1205;-580;-2226;-6787
1876007;2;20;2;3739;3319;1483;-1362;-1227;-1245;-7033
1876017;2;20;2;3739;3520;1552;-1284;-1459;-373;-7320
1876027;2;20;2;3739;3614;1629;-898;-1793;-106;-7589
1876037;2;20;2;3739;3653;1725;-286;-1995;-325;-7620
1876047;2;20;2;3739;3557;1804;477;-1430;-789;-7398
1876057;2;20;2;3739;3353;1777;800;-338;-1567;-6946
1876067;2;20;2;3739;3228;1678;716;183;-2611;-6106
1876077;2;20;2;3739;3284;1495;321;515;-3314;-5534
1876087;2;20;2;3739;3177;1632;-214;515;-3076;-5070
1876097;2;20;2;3739;3096;1615;-621;581;-2304;-4828
1876107;2;20;2;3739;3040;1835;-993;678;-1165;-4842
1876117;2;20;2;3739;3111;1967;-1224;712;54;-4945
1876127;2;20;2;3739;3131;2209;-1122;827;1233;-5139
1876137;2;20;2;3739;3302;2510;-728;949;2013;-5321
1876147;2;20;2;3739;3186;2769;-170;1091;2336;-5305
1876157;2;20;2;3739;2955;3051;376;1009;2102;-5036
1876167;2;20;2;3739;2859;3405;803;1385;1423;-4475
1876177;2;20;2;3739;2798;3479;823;1842;125;-3844
1876187;2;20;2;3739;2927;3356;300;1814;-1656;-3402
1876197;2;20;2;3739;2662;3426;-346;2069;-2514;-3368
1876207;2;20;2;3739;2417;3327;-966;3350;-1956;-3914
1876217;2;20;2;3739;2469;3295;-842;4960;-896;-4705
1876227;2;20;2;3739;2763;3527;-142;5673;-627;-5323
1876237;2;20;2;3739;3156;3627;749;5736;-1852;-5446
1876247;2;20;2;3739;3619;3384;859;5939;-4105;-5377
1876257;2;20;2;3739;3886;2937;180;6257;-6015;-5196
1876267;2;20;2;3739;3800;2482;-698;6359;-6764;-5230
1876277;2;20;2;3739;3759;2039;-1230;6199;-6561;-5516
1876287;2;20;2;3739;3601;2031;-1544;5808;-5759;-5833
1876297;2;20;2;3739;3381;2267;-1637;5504;-4416;-6192
1876307;2;20;2;3739;3185;2547;-1418;5449;-3193;-6544
1876317;2;20;2;3739;2922;2813;-1437;5475;-2422;-6835
1876327;2;20;2;3739;2608;3012;-1563;5188;-1738;-7217
1876337;2;20;2;3739;2196;3164;-1509;4699;-1585;-7345
1876347;2;20;2;3739;1744;3143;-1701;4369;-1927;-7262
1876357;2;20;2;3739;1386;2950;-2301;4261;-1893;-7146
1876367;2;20;2;3739;1052;2987;-2311;3813;-1093;-7151
1876377;2;20;2;3739;1238;3283;-1666;3587;-364;-7008
1876387;2;20;2;3739;1511;3739;-976;3706;-75;-6516
1876397;2;20;2;3739;2088;3936;-248;4213;-147;-5950
1876407;2;20;2;3739;2506;3862;62;4666;-671;-5231
1876417;2;20;2;3739;2962;3212;-358;4634;-1934;-4596
1876427;2;20;2;3740;3367;2407;-1667;3621;-3474;-4082
1876437;2;20;2;3740;3607;1631;-3031;3083;-3786;-4408
1876447;2;20;2;3740;3292;1381;-4131;3059;-2422;-5311
1876457;2;20;2;3740;2827;1528;-3994;3048;-736;-6176
1876467;2;20;2;3740;2469;2134;-3226;2819;-13;-6443
1876477;2;20;2;3740;2174;3010;-2642;2721;-79;-5865
1876487;2;20;2;3740;2241;3474;-2106;2587;-172;-5122
1876497;2;20;2;3740;2770;3659;-1833;2658;-508;-4561
1876507;2;20;2;3740;3402;3205;-2302;2877;-1094;-4363
1876517;2;20;2;3740;3605;2963;-2933;3291;-1269;-4811
1876527;2;20;2;3740;3572;2806;-3354;4209;-1056;-5294
1876537;2;20;2;3740;3418;2888;-3597;4811;-695;-5833
1876547;2;20;2;3740;3194;2825;-3726;4390;-479;-6125
1876557;2;20;2;3740;2715;2881;-3815;2661;-252;-6186
1876567;2;20;2;3740;2285;3320;-3352;965;-67;-6010
1876577;2;20;2;3740;2176;3587;-3319;119;191;-5782
1876587;2;20;2;3740;1958;3720;-3192;-259;685;-5404
1876597;2;20;2;3740;1679;3770;-3154;-446;871;-4977
1876607;2;20;2;3740;1383;3809;-3297;-883;901;-4287
1876617;2;20;2;3740;1127;3403;-3422;-1466;989;-3499
1876627;2;20;2;3740;1029;2846;-3435;-2267;1366;-2852
1876637;2;20;2;3740;1182;2434;-3216;-3255;2420;-2190
1876647;2;20;2;3740;1764;2314;-2883;-4151;3181;-2000
1876657;2;20;2;3740;2174;2305;-2034;-4969;2990;-1615
1876667;2;20;2;3740;2465;2380;-1717;-4511;2017;-1299
1876677;2;20;2;3740;2607;2517;-1741;-3031;1290;-1126
1876687;2;20;2;3740;2716;2562;-2152;-1537;835;-1214
1876697;2;20;2;3740;2745;2665;-2517;-543;832;-1523
1876707;2;20;2;3740;2474;2912;-2638;-139;779;-1763
1876717;2;20;2;3740;2153;2952;-2557;151;393;-1593
1876727;2;20;2;3740;1590;2916;-2703;786;30;-1500
1876737;2;20;2;3740;763;2877;-3064;1755;252;-1451
1876747;2;20;2;3740;103;2444;-3333;1522;642;-1114
1876757;2;20;2;3740;-366;2180;-3339;179;1172;-507
1876767;2;20;2;3740;-534;2005;-2971;-1227;1386;274
1876777;2;20;2;3740;-704;2030;-2645;-2209;1396;1138
1876787;2;20;2;3740;-610;1991;-2301;-2758;1458;1965
1876797;2;20;2;3740;-212;2133;-2026;-2763;1703;2329
1876807;2;20;2;3740;409;2361;-2016;-2816;2130;2045
1876817;2;20;2;3740;865;2712;-1783;-2780;2646;1262
1876827;2;20;2;3740;990;3083;-1615;-2184;2667;473
1876837;2;20;2;3740;1029;3422;-1604;-1107;2411;-504
1876847;2;20;2;3740;879;3917;-1786;-10;1860;-1266
1876857;2;20;2;3740;487;4323;-2105;678;951;-1588
1876867;2;20;2;3740;259;4417;-2661;1147;-102;-1743
1876877;2;20;2;3740;260;4415;-3283;1468;-749;-2040
1876887;2;20;2;3740;387;4501;-3716;1160;-1109;-2597
1876897;2;20;2;3740;530;4555;-3816;479;-1550;-3156
1876907;2;20;2;3740;590;4658;-3472;823;-1966;-3874
1876917;2;20;2;3740;567;4668;-3538;1539;-2781;-4095
1876927;2;20;2;3741;523;4753;-3723;1766;-3680;-4117
1876937;2;20;2;3741;442;5108;-4088;1836;-4111;-3598
1876947;2;20;2;3741;395;5474;-4559;1655;-4395;-2580
1876957;2;20;2;3741;446;5690;-5181;1371;-4265;-1491
1876967;2;20;2;3741;675;5804;-5697;822;-3656;-733
1876977;2;20;2;3741;1039;5721;-5996;-102;-2812;-417
1876987;2;20;2;3741;1581;5304;-5853;-1131;-2160;-305
1876997;2;20;2;3741;2017;4710;-5626;-2100;-1762;-628
1877007;2;20;2;3741;2288;4038;-5427;-3893;-1314;-1518
1877017;2;20;2;3741;2209;3597;-4721;-6416;-412;-2444
1877027;2;20;2;3741;1984;3069;-4008;-8750;1050;-3492
1877037;2;20;2;3741;1651;2966;-2400;-11474;3251;-4974
1877047;2;20;2;3741;1325;3332;-136;-11578;4733;-5925
1877057;2;20;2;3741;1072;4142;2394;-4837;4722;-6286
1877067;2;20;2;3741;888;4376;749;1987;2517;-5485
1877077;2;20;2;3741;984;3639;-1227;2952;922;-4575
1877087;2;20;2;3741;877;3138;-2537;2994;1125;-4212
1877097;2;20;2;3741;716;3231;-3079;2727;2353;-4227
1877107;2;20;2;3741;540;3665;-3071;1821;3435;-4070
1877117;2;20;2;3741;545;3990;-2789;354;3968;-3775
1877127;2;20;2;3741;657;4178;-2443;-412;4340;-3641
1877137;2;20;2;3741;772;4372;-2139;-571;4649;-3744
1877147;2;20;2;3741;754;4472;-1925;-364;4884;-4045
1877157;2;20;2;3741;554;4486;-1730;38;5038;-4386
1877167;2;20;2;3741;335;4369;-1650;356;5069;-4693
1877177;2;20;2;3741;84;4309;-1641;602;5176;-5034
1877187;2;20;2;3741;-59;4116;-1879;662;5457;-5179
1877197;2;20;2;3741;23;3966;-1912;779;5912;-5331
1877207;2;20;2;3741;234;3926;-1797;829;6269;-5191
1877217;2;20;2;3741;526;3840;-1662;805;6364;-4884
1877227;2;20;2;3741;781;3766;-1519;674;6493;-4748
1877237;2;20;2;3741;921;3733;-1357;499;6666;-4701
1877247;2;20;2;3741;1085;3502;-1408;-261;6702;-4559
1877257;2;20;2;3741;1311;3363;-1436;-1132;6814;-4823
1877267;2;20;2;3741;1348;3429;-1464;-1754;7098;-5217
1877277;2;20;2;3741;1249;3516;-1408;-2258;7331;-5441
1877287;2;20;2;3741;1021;3552;-1348;-2550;7478;-5582
1877297;2;20;2;3741;726;3591;-1278;-2675;7411;-5341
1877307;2;20;2;3741;441;3518;-1356;-2522;7207;-4613
1877317;2;20;2;3741;191;3281;-1703;-2132;7551;-3906
1877327;2;20;2;3741;257;3016;-1910;-2071;8362;-3485
1877337;2;20;2;3741;288;2954;-1727;-2499;8928;-3106
1877347;2;20;2;3741;214;2923;-1587;-2704;9347;-2794
1877357;2;20;2;3741;220;2691;-1402;-2489;9964;-2510
1877367;2;20;2;3741;137;2753;-1305;-2158;10553;-2739
1877377;2;20;2;3741;122;2664;-1103;-2068;10873;-2848
1877387;2;20;2;3741;90;2583;-1014;-1791;10935;-2987
1877397;2;20;2;3741;-25;2478;-1008;-1722;10520;-2872
1877407;2;20;2;3741;-104;2335;-1114;-1759;9866;-2660
1877417;2;20;2;3741;-159;2279;-1207;-1759;9425;-2490
1877427;2;20;2;3742;-315;2242;-1232;-1747;9010;-2316
1877437;2;20;2;3742;-451;2237;-1163;-1759;8636;-2093
1877447;2;20;2;3742;-572;2274;-1189;-1646;8429;-1829
1877457;2;20;2;3742;-462;2329;-1206;-1539;8253;-1595
1877467;2;20;2;3742;-369;2469;-1201;-1842;8022;-1442
1877477;2;20;2;3742;-214;2551;-1056;-2461;7564;-1282
1877487;2;20;2;3742;-16;2812;-860;-2811;7090;-1249
1877497;2;20;2;3742;119;2993;-748;-2828;6644;-1352
1877507;2;20;2;3742;173;3103;-805;-2888;6134;-1687
1877517;2;20;2;3742;201;3115;-846;-2993;5587;-2079
1877527;2;20;2;3742;182;3060;-900;-2726;5121;-2385
1877537;2;20;2;3742;146;2961;-1052;-2471;4887;-2637
1877547;2;20;2;3742;131;2872;-995;-2370;4784;-2824
1877557;2;20;2;3742;99;2938;-923;-2271;4638;-2757
1877567;2;20;2;3742;156;2935;-1040;-2039;4669;-2534
1877577;2;20;2;3742;345;2924;-1118;-1882;5103;-2340
1877587;2;20;2;3742;565;3033;-1040;-1942;5788;-2340
1877597;2;20;2;3742;721;3236;-768;-2034;6429;-2371
1877607;2;20;2;3742;776;3394;-429;-2033;6669;-2290
1877617;2;20;2;3742;740;3434;-334;-2048;6635;-2207
1877627;2;20;2;3742;671;3444;-373;-2155;6524;-2157
1877637;2;20;2;3742;613;3430;-325;-2018;6327;-2076
1877647;2;20;2;3742;577;3368;-428;-1626;6234;-2081
1877657;2;20;2;3742;353;3420;-512;-1251;6343;-2147
1877667;2;20;2;3742;148;3449;-552;-903;6571;-2114
1877677;2;20;2;3742;168;3386;-616;-384;7007;-2025
1877687;2;20;2;3742;325;3420;-685;-34;7590;-1963
1877697;2;20;2;3742;429;3570;-719;-32;8156;-1895
1877707;2;20;2;3742;580;3693;-610;-273;8605;-1813
1877717;2;20;2;3742;760;3789;-433;-430;8923;-1758
1877727;2;20;2;3742;735;3935;-293;-341;9249;-1725
1877737;2;20;2;3742;592;3946;-233;-184;9457;-1611
1877747;2;20;2;3742;397;3930;-131;-319;9585;-1522
1877757;2;20;2;3742;180;4001;-2;-536;9551;-1356
1877767;2;20;2;3742;83;3989;-32;-550;9443;-1187
1877777;2;20;2;3742;33;4000;-141;-405;9278;-1062
1877787;2;20;2;3742;-64;4052;-324;-176;9114;-998
1877797;2;20;2;3742;-168;4117;-442;197;9109;-1092
1877807;2;20;2;3742;-345;4185;-639;868;9369;-1131
1877817;2;20;2;3742;-474;4246;-644;1415;9606;-991
1877827;2;20;2;3742;-466;4298;-681;2117;8910;-446
1877837;2;20;2;3742;-420;4362;-1172;2787;7853;277
1877847;2;20;2;3742;-292;4224;-1747;2931;7555;576
1877857;2;20;2;3742;-238;4294;-2032;2526;7475;515
1877867;2;20;2;3742;-72;4351;-2142;1820;7007;563
1877877;2;20;2;3742;219;4402;-2081;1003;6503;390
1877887;2;20;2;3742;506;4460;-2010;319;6162;-40
1877897;2;20;2;3742;889;4425;-1293;238;6701;-810
1877907;2;20;2;3742;1104;4993;483;3160;7089;-1768
1877917;2;20;2;3742;1228;4966;-126;5955;5444;-1699
