timestamp;subject_id;activity;label;seq;ax;ay;az;gx;gy;gz
1937927;2;20;2;3863;1569;3727;672;763;1055;-194
1937937;2;20;2;3863;1585;3780;584;834;983;-156
1937947;2;20;2;3863;1571;3834;505;881;928;-132
1937957;2;20;2;3863;1598;3906;476;863;874;-138
1937967;2;20;2;3863;1611;3932;341;848;913;-184
1937977;2;20;2;3863;1624;3937;298;792;1070;-268
1937987;2;20;2;3863;1616;3960;380;605;1077;-316
1937997;2;20;2;3863;1568;3967;517;461;950;-303
1938007;2;20;2;3863;1539;3941;459;363;799;-255
1938017;2;20;2;3863;1536;3911;396;251;793;-254
1938027;2;20;2;3863;1526;3894;434;141;766;-240
1938037;2;20;2;3863;1519;3896;475;-5;629;-216
1938047;2;20;2;3863;1538;3920;539;-48;477;-192
1938057;2;20;2;3863;1555;3917;507;-102;275;-169
1938067;2;20;2;3863;1559;3878;397;-205;127;-184
1938077;2;20;2;3863;1560;3849;312;-264;138;-236
1938087;2;20;2;3863;1561;3853;403;-273;206;-301
1938097;2;20;2;3863;1544;3875;547;-216;194;-314
1938107;2;20;2;3863;1525;3893;684;-77;-44;-241
1938117;2;20;2;3863;1557;3841;583;-57;-210;-229
1938127;2;20;2;3863;1576;3837;403;-119;-138;-223
1938137;2;20;2;3863;1577;3788;284;-127;66;-301
1938147;2;20;2;3863;1579;3814;292;-218;317;-382
1938157;2;20;2;3863;1545;3853;497;-321;321;-387
1938167;2;20;2;3863;1516;3889;631;-326;69;-307
1938177;2;20;2;3863;1484;3896;613;-234;-211;-213
1938187;2;20;2;3863;1482;3859;463;-121;-306;-183
1938197;2;20;2;3863;1489;3852;312;-87;-120;-242
1938207;2;20;2;3863;1511;3870;320;-186;116;-323
1938217;2;20;2;3863;1506;3920;468;-350;150;-350
1938227;2;20;2;3863;1473;3974;540;-416;35;-326
1938237;2;20;2;3863;1438;3953;554;-391;-115;-269
1938247;2;20;2;3863;1429;3912;502;-378;-240;-227
1938257;2;20;2;3863;1482;3894;438;-398;-286;-220
1938267;2;20;2;3863;1500;3889;376;-422;-233;-266
1938277;2;20;2;3863;1497;3899;371;-430;-201;-322
1938287;2;20;2;3863;1422;3882;386;-509;-178;-359
1938297;2;20;2;3863;1412;3959;497;-614;-238;-366
1938307;2;20;2;3863;1390;3947;583;-506;-370;-287
1938317;2;20;2;3863;1389;3926;538;-436;-465;-241
1938327;2;20;2;3863;1302;3971;501;-447;-521;-195
1938337;2;20;2;3863;1481;3853;457;-475;-542;-153
1938347;2;20;2;3863;1496;3957;457;-498;-502;-191
1938357;2;20;2;3863;1551;3935;456;-556;-612;-229
1938367;2;20;2;3863;1516;3922;463;-654;-667;-252
1938377;2;20;2;3863;1483;3928;426;-691;-680;-281
1938387;2;20;2;3863;1457;3914;418;-620;-714;-278
1938397;2;20;2;3863;1426;3925;380;-566;-786;-249
1938407;2;20;2;3863;1425;3873;387;-639;-815;-117
1938417;2;20;2;3863;1408;3943;424;-587;-798;-134
1938427;2;20;2;3864;1431;3911;437;-536;-805;-65
1938437;2;20;2;3864;1478;3921;345;-530;-730;-57
1938447;2;20;2;3864;1529;3875;313;-563;-596;-112
1938457;2;20;2;3864;1557;3875;388;-609;-499;-163
1938467;2;20;2;3864;1580;3862;489;-588;-529;-199
1938477;2;20;2;3864;1551;3842;527;-480;-597;-213
1938487;2;20;2;3864;1511;3841;526;-345;-612;-231
1938497;2;20;2;3864;1488;3848;493;-243;-539;-253
1938507;2;20;2;3864;1512;3897;534;-163;-470;-262
1938517;2;20;2;3864;1502;3925;543;-175;-469;-258
1938527;2;20;2;3864;1501;3940;534;-262;-503;-236
1938537;2;20;2;3864;1480;3934;430;-342;-529;-190
1938547;2;20;2;3864;1497;3927;413;-386;-554;-150
1938557;2;20;2;3864;1520;3900;409;-431;-564;-129
1938567;2;20;2;3864;1559;3877;381;-460;-503;-176
1938577;2;20;2;3864;1529;3848;445;-423;-480;-243
1938587;2;20;2;3864;1527;3826;493;-372;-563;-285
1938597;2;20;2;3864;1444;3824;510;-272;-648;-315
1938607;2;20;2;3864;1361;3817;535;-161;-687;-325
1938617;2;20;2;3864;1314;3819;618;-31;-825;-295
1938627;2;20;2;3864;1293;3852;643;138;-1045;-219
1938637;2;20;2;3864;1328;3858;563;318;-1211;-140
1938647;2;20;2;3864;1374;3862;472;380;-1236;-139
1938657;2;20;2;3864;1442;3884;456;372;-1132;-191
1938667;2;20;2;3864;1469;3939;476;336;-997;-259
1938677;2;20;2;3864;1483;3984;520;274;-892;-295
1938687;2;20;2;3864;1453;4018;559;190;-847;-300
1938697;2;20;2;3864;1453;4026;534;60;-834;-271
1938707;2;20;2;3864;1415;4007;507;-74;-816;-212
1938717;2;20;2;3864;1411;3998;519;-206;-821;-137
1938727;2;20;2;3864;1396;3988;533;-295;-876;-51
1938737;2;20;2;3864;1402;3924;511;-320;-891;16
1938747;2;20;2;3864;1400;3855;471;-320;-807;43
1938757;2;20;2;3864;1463;3797;427;-403;-713;16
1938767;2;20;2;3864;1479;3787;453;-431;-561;-83
1938777;2;20;2;3864;1506;3825;526;-357;-450;-216
1938787;2;20;2;3864;1471;3823;633;-226;-445;-334
1938797;2;20;2;3864;1449;3865;646;-76;-444;-466
1938807;2;20;2;3864;1368;3871;651;72;-409;-559
1938817;2;20;2;3864;1340;3904;636;127;-499;-580
1938827;2;20;2;3864;1300;3961;602;157;-615;-523
1938837;2;20;2;3864;1309;3978;494;128;-737;-426
1938847;2;20;2;3864;1302;3987;425;-32;-814;-347
1938857;2;20;2;3864;1316;3975;369;-303;-894;-215
1938867;2;20;2;3864;1356;3980;407;-534;-890;-110
1938877;2;20;2;3864;1410;3949;485;-706;-816;-40
1938887;2;20;2;3864;1456;3898;546;-796;-821;16
1938897;2;20;2;3864;1462;3876;559;-828;-925;74
1938907;2;20;2;3864;1441;3885;536;-841;-996;139
1938917;2;20;2;3864;1410;3868;575;-808;-1015;176
1938927;2;20;2;3865;1396;3884;598;-680;-1011;202
1938937;2;20;2;3865;1399;3905;575;-603;-971;207
1938947;2;20;2;3865;1425;3924;561;-533;-920;193
1938957;2;20;2;3865;1426;3929;536;-480;-931;187
1938967;2;20;2;3865;1443;3932;545;-443;-1010;205
1938977;2;20;2;3865;1456;3920;480;-421;-1072;213
1938987;2;20;2;3865;1483;3895;400;-379;-1016;200
1938997;2;20;2;3865;1483;3865;350;-310;-824;149
1939007;2;20;2;3865;1499;3882;429;-307;-612;94
1939017;2;20;2;3865;1493;3895;516;-315;-547;76
1939027;2;20;2;3865;1484;3908;566;-323;-599;108
1939037;2;20;2;3865;1487;3893;498;-318;-641;156
1939047;2;20;2;3865;1480;3885;440;-340;-579;188
1939057;2;20;2;3865;1486;3889;383;-373;-481;214
1939067;2;20;2;3865;1494;3867;379;-405;-344;227
1939077;2;20;2;3865;1492;3845;407;-442;-199;234
1939087;2;20;2;3865;1463;3844;417;-478;-55;239
1939097;2;20;2;3865;1471;3834;478;-493;66;255
1939107;2;20;2;3865;1481;3810;537;-439;143;279
1939117;2;20;2;3865;1495;3816;585;-369;166;299
1939127;2;20;2;3865;1506;3810;575;-322;208;286
1939137;2;20;2;3865;1538;3812;592;-302;232;257
1939147;2;20;2;3865;1521;3809;527;-258;258;210
1939157;2;20;2;3865;1495;3825;480;-172;387;143
1939167;2;20;2;3865;1440;3857;520;-76;503;120
1939177;2;20;2;3865;1415;3903;543;-17;496;152
1939187;2;20;2;3865;1399;3925;533;58;452;201
1939197;2;20;2;3865;1426;3932;456;187;464;225
1939207;2;20;2;3865;1442;3924;400;234;466;227
1939217;2;20;2;3865;1475;3915;339;140;499;200
1939227;2;20;2;3865;1494;3924;342;-29;514;135
1939237;2;20;2;3865;1519;3915;391;-200;442;73
1939247;2;20;2;3865;1524;3909;423;-301;232;42
1939257;2;20;2;3865;1468;3890;413;-338;4;32
1939267;2;20;2;3865;1435;3865;408;-320;-235;65
1939277;2;20;2;3865;1414;3834;348;-233;-430;104
1939287;2;20;2;3865;1472;3801;335;-62;-576;135
1939297;2;20;2;3865;1518;3765;312;115;-818;164
1939307;2;20;2;3865;1608;3725;260;231;-1084;174
1939317;2;20;2;3865;1645;3701;209;313;-1294;167
1939327;2;20;2;3865;1664;3682;182;366;-1376;135
1939337;2;20;2;3865;1750;3585;241;237;-1462;86
1939347;2;20;2;3865;1814;3635;212;-24;-1465;1
1939357;2;20;2;3865;1854;3644;314;-197;-1293;-128
1939367;2;20;2;3865;2002;3720;533;-72;-1110;-244
1939377;2;20;2;3865;2016;3750;755;100;-1286;-199
1939387;2;20;2;3865;2027;3751;726;70;-1201;-359
1939397;2;20;2;3865;1995;3792;709;370;-1084;-413
1939407;2;20;2;3865;1940;3853;728;757;-1065;-440
1939417;2;20;2;3865;1863;3945;651;1130;-1057;-385
1939427;2;20;2;3866;1770;4014;576;1488;-999;-296
1939437;2;20;2;3866;1725;4028;463;1677;-973;-152
1939447;2;20;2;3866;1724;4046;348;1641;-988;-25
1939457;2;20;2;3866;1754;4049;281;1288;-1099;100
1939467;2;20;2;3866;1768;4111;246;763;-1215;151
1939477;2;20;2;3866;1812;4124;304;515;-1370;160
1939487;2;20;2;3866;1794;4091;361;344;-1618;161
1939497;2;20;2;3866;1769;4011;311;82;-1988;155
1939507;2;20;2;3866;1739;3930;242;-305;-2220;125
1939517;2;20;2;3866;1756;3835;240;-690;-2345;78
1939527;2;20;2;3866;1764;3743;345;-1011;-2385;25
1939537;2;20;2;3866;1772;3688;501;-1196;-2372;-36
1939547;2;20;2;3866;1765;3615;671;-1014;-2372;-85
1939557;2;20;2;3866;1846;3548;747;-686;-2404;-117
1939567;2;20;2;3866;1885;3483;755;-468;-2438;-158
1939577;2;20;2;3866;1939;3402;678;-500;-2516;-224
1939587;2;20;2;3866;1942;3394;658;-583;-2516;-328
1939597;2;20;2;3866;1908;3408;654;-579;-2451;-441
1939607;2;20;2;3866;1909;3438;657;-471;-2406;-560
1939617;2;20;2;3866;1885;3485;628;-364;-2349;-664
1939627;2;20;2;3866;1875;3526;574;-295;-2232;-800
1939637;2;20;2;3866;1851;3627;583;-287;-2103;-939
1939647;2;20;2;3866;1836;3679;626;-332;-2022;-1041
1939657;2;20;2;3866;1842;3801;648;-437;-2027;-1086
1939667;2;20;2;3866;1855;3886;584;-511;-1963;-1091
1939677;2;20;2;3866;1906;3919;514;-481;-1717;-1135
1939687;2;20;2;3866;1922;3899;428;-528;-1422;-1162
1939697;2;20;2;3866;1974;3951;502;-801;-1161;-1153
1939707;2;20;2;3866;2033;4035;729;-902;-1177;-1066
1939717;2;20;2;3866;2047;4040;812;-783;-1351;-1020
1939727;2;20;2;3866;1973;4091;712;-766;-1477;-983
1939737;2;20;2;3866;1855;4078;598;-977;-1499;-917
1939747;2;20;2;3866;1698;4048;441;-1059;-1318;-837
1939757;2;20;2;3866;1557;4062;358;-990;-909;-720
1939767;2;20;2;3866;1588;4065;365;-1023;-223;-658
1939777;2;20;2;3866;1641;4142;603;-1004;340;-605
1939787;2;20;2;3866;1696;4193;829;-819;396;-513
1939797;2;20;2;3866;1678;4181;813;-526;200;-449
1939807;2;20;2;3866;1597;4083;614;-412;-40;-397
1939817;2;20;2;3866;1521;3990;394;-546;-235;-401
1939827;2;20;2;3866;1405;3968;333;-627;-286;-398
1939837;2;20;2;3866;1312;3982;368;-471;-213;-464
1939847;2;20;2;3866;1304;4011;394;-176;-153;-526
1939857;2;20;2;3866;1344;4002;370;-55;-210;-601
1939867;2;20;2;3866;1298;4034;335;-105;-368;-692
1939877;2;20;2;3866;1356;4097;214;-253;-573;-771
1939887;2;20;2;3866;1220;4171;87;-454;-770;-748
1939897;2;20;2;3866;1154;4104;-58;-389;-962;-667
1939907;2;20;2;3866;1069;4079;-210;-313;-1153;-555
1939917;2;20;2;3866;940;4104;-221;-200;-1164;-378
1939927;2;20;2;3867;817;4101;-109;182;-1050;-224
1939937;2;20;2;3867;819;4017;-47;556;-1005;-24
1939947;2;20;2;3867;807;3969;25;817;-1018;85
1939957;2;20;2;3867;866;3892;34;1137;-991;85
1939967;2;20;2;3867;989;3863;152;1203;-994;-67
1939977;2;20;2;3867;1141;3931;199;1289;-1348;-155
1939987;2;20;2;3867;1286;3847;46;1317;-1810;-178
1939997;2;20;2;3867;1308;3800;-84;1131;-2029;-369
1940007;2;20;2;3867;1365;3852;-78;762;-2019;-595
1940017;2;20;2;3867;1290;3918;-86;486;-1878;-894
1940027;2;20;2;3867;1170;3916;-58;182;-1709;-1038
1940037;2;20;2;3867;1028;3944;9;-93;-1614;-1057
1940047;2;20;2;3867;962;3972;57;-293;-1590;-941
1940057;2;20;2;3867;967;3972;57;-320;-1592;-816
1940067;2;20;2;3867;1074;3933;72;-269;-1509;-711
1940077;2;20;2;3867;1177;3894;111;-264;-1423;-714
1940087;2;20;2;3867;1232;3909;268;-257;-1364;-777
1940097;2;20;2;3867;1218;3920;372;-143;-1315;-846
1940107;2;20;2;3867;1229;3910;449;27;-1336;-861
1940117;2;20;2;3867;1234;3881;417;191;-1324;-884
1940127;2;20;2;3867;1225;3910;375;297;-1193;-919
1940137;2;20;2;3867;1202;3899;293;349;-992;-933
1940147;2;20;2;3867;1152;3905;236;220;-713;-918
1940157;2;20;2;3867;1063;3981;171;60;-496;-804
1940167;2;20;2;3867;1043;3981;113;-33;-419;-661
1940177;2;20;2;3867;985;4039;46;-220;-327;-570
1940187;2;20;2;3867;916;4061;99;-343;-223;-434
1940197;2;20;2;3867;911;4054;217;-322;-232;-374
1940207;2;20;2;3867;864;4053;271;-182;-288;-350
1940217;2;20;2;3867;824;4006;291;-68;-317;-319
1940227;2;20;2;3867;811;3959;329;-8;-297;-289
1940237;2;20;2;3867;840;3927;420;24;-293;-248
1940247;2;20;2;3867;859;3932;487;121;-300;-208
1940257;2;20;2;3867;922;3898;500;232;-355;-137
1940267;2;20;2;3867;957;3875;400;221;-403;-65
1940277;2;20;2;3867;978;3877;301;130;-353;-30
1940287;2;20;2;3867;976;3894;278;18;-190;-61
1940297;2;20;2;3867;1012;3942;349;-69;-90;-71
1940307;2;20;2;3867;992;4016;444;-19;-162;-81
1940317;2;20;2;3867;924;4055;483;69;-288;-78
1940327;2;20;2;3867;832;4023;439;116;-369;-27
1940337;2;20;2;3867;798;4034;413;164;-407;36
1940347;2;20;2;3867;772;4057;336;276;-388;163
1940357;2;20;2;3867;766;4061;271;274;-404;333
1940367;2;20;2;3867;780;4059;148;159;-365;506
1940377;2;20;2;3867;813;4098;131;34;-218;664
1940387;2;20;2;3867;969;4097;181;-83;-123;719
1940397;2;20;2;3867;1016;4116;192;-159;-35;722
1940407;2;20;2;3867;1019;4065;122;-169;5;705
1940417;2;20;2;3867;926;4019;12;-155;139;660
1940427;2;20;2;3868;870;3981;-21;-106;360;591
1940437;2;20;2;3868;775;3984;18;-72;561;549
1940447;2;20;2;3868;713;4025;110;22;666;534
1940457;2;20;2;3868;631;4087;149;182;715;559
1940467;2;20;2;3868;624;4136;166;438;755;622
1940477;2;20;2;3868;644;4155;104;665;898;676
1940487;2;20;2;3868;749;4142;67;791;1148;671
1940497;2;20;2;3868;832;4133;78;817;1500;595
1940507;2;20;2;3868;925;4200;339;952;1864;399
1940517;2;20;2;3868;982;4259;429;1060;1959;275
1940527;2;20;2;3868;1137;4368;487;1204;1903;60
1940537;2;20;2;3868;1338;4489;422;1037;1683;-193
1940547;2;20;2;3868;1485;4730;495;649;1459;-518
1940557;2;20;2;3868;1482;5123;550;875;1136;-922
1940567;2;20;2;3868;1372;4904;24;849;513;-916
1940577;2;20;2;3868;1149;5141;-588;238;-109;-923
1940587;2;20;2;3868;984;4913;-1097;-318;-285;-537
1940597;2;20;2;3868;857;4746;-1456;-609;6;-515
1940607;2;20;2;3868;740;4447;-1492;-642;997;-669
1940617;2;20;2;3868;810;4043;-1283;-1370;2146;-650
1940627;2;20;2;3868;880;3844;-655;-2840;2866;-576
1940637;2;20;2;3868;1020;3884;635;-3215;3107;-348
1940647;2;20;2;3868;1051;4071;1537;-1143;2745;73
1940657;2;20;2;3868;1171;3843;976;229;1739;675
1940667;2;20;2;3868;1357;3571;279;-55;792;1110
1940677;2;20;2;3868;1400;3626;-199;-359;306;1400
1940687;2;20;2;3868;1384;3612;-592;-492;278;1497
1940697;2;20;2;3868;1335;3621;-779;-716;546;1474
1940707;2;20;2;3868;1368;3634;-764;-1030;736;1408
1940717;2;20;2;3868;1397;3656;-629;-1190;767;1327
1940727;2;20;2;3868;1387;3629;-334;-1151;639;1349
1940737;2;20;2;3868;1394;3629;-160;-1004;370;1203
1940747;2;20;2;3868;1504;3553;31;-887;206;1060
1940757;2;20;2;3868;1584;3534;146;-678;133;895
1940767;2;20;2;3868;1742;3486;216;-427;142;570
1940777;2;20;2;3868;1860;3560;268;-330;156;256
1940787;2;20;2;3868;1950;3628;314;-211;137;-39
1940797;2;20;2;3868;1957;3709;244;-41;2;-183
1940807;2;20;2;3868;2007;3647;144;174;89;-211
1940817;2;20;2;3868;1985;3765;31;275;312;-344
1940827;2;20;2;3868;1993;3752;99;328;514;-314
1940837;2;20;2;3868;1967;3856;179;495;631;-87
1940847;2;20;2;3868;1904;3845;181;658;718;358
1940857;2;20;2;3868;1865;3811;145;314;899;726
1940867;2;20;2;3868;1863;3850;175;-247;1233;938
1940877;2;20;2;3868;1830;3848;300;-681;1507;1007
1940887;2;20;2;3868;1809;3851;472;-851;1663;869
1940897;2;20;2;3868;1725;3863;624;-698;1616;708
1940907;2;20;2;3868;1636;3848;694;-312;1283;594
1940917;2;20;2;3868;1514;3769;618;92;876;591
1940927;2;20;2;3869;1424;3660;494;309;562;588
1940937;2;20;2;3869;1388;3575;443;335;467;639
1940947;2;20;2;3869;1415;3494;372;259;529;616
1940957;2;20;2;3869;1492;3389;331;266;772;535
1940967;2;20;2;3869;1599;3376;329;407;1128;293
1940977;2;20;2;3869;1642;3400;528;421;1332;2
1940987;2;20;2;3869;1660;3455;659;540;1331;-220
1940997;2;20;2;3869;1536;3542;703;733;1194;-378
1941007;2;20;2;3869;1378;3600;638;792;838;-319
1941017;2;20;2;3869;1317;3615;420;767;406;-129
1941027;2;20;2;3869;1242;3628;107;755;108;77
1941037;2;20;2;3869;1182;3603;-289;570;-24;286
1941047;2;20;2;3869;1106;3607;-509;-10;-122;479
1941057;2;20;2;3869;1030;3606;-622;-414;-380;779
1941067;2;20;2;3869;956;3599;-722;-335;-461;1024
1941077;2;20;2;3869;903;3647;-536;427;-186;1190
1941087;2;20;2;3869;874;3658;-362;1517;-52;1346
1941097;2;20;2;3869;940;3551;-390;2667;-56;1624
1941107;2;20;2;3869;1069;3469;-470;3571;157;1500
1941117;2;20;2;3869;1108;3565;-381;4590;841;1220
1941127;2;20;2;3869;1136;3688;-357;5680;1399;862
1941137;2;20;2;3869;1405;3782;-186;6797;1580;490
1941147;2;20;2;3869;1765;4024;-181;7203;1230;130
1941157;2;20;2;3869;1990;4069;-902;6640;500;-132
1941167;2;20;2;3869;2145;3954;-1396;5181;-188;-23
1941177;2;20;2;3869;2076;4177;-1246;4129;-247;-224
1941187;2;20;2;3869;2072;4325;-850;4263;187;-435
1941197;2;20;2;3869;2122;4133;-637;4661;774;-812
1941207;2;20;2;3869;2180;3918;-623;4489;1340;-1439
1941217;2;20;2;3869;2048;3829;-676;4085;1909;-2127
1941227;2;20;2;3869;1812;3898;-581;3952;2515;-2678
1941237;2;20;2;3869;1348;4233;-470;4151;2792;-2818
1941247;2;20;2;3869;809;4515;-407;5002;2533;-2115
1941257;2;20;2;3869;402;4649;-756;6325;2003;-552
1941267;2;20;2;3869;409;4533;-1556;7060;1775;1183
1941277;2;20;2;3869;765;4041;-2354;6925;2155;2121
1941287;2;20;2;3869;1048;3449;-2789;6350;3071;1871
1941297;2;20;2;3869;1106;2961;-2939;5148;4198;1028
1941307;2;20;2;3869;926;2730;-2586;3790;5223;-135
1941317;2;20;2;3869;565;2617;-1469;3585;6298;-1087
1941327;2;20;2;3869;258;2514;-344;5623;6872;-1711
1941337;2;20;2;3869;-5;2303;24;7096;6405;-1974
1941347;2;20;2;3869;-133;1814;14;7631;5320;-1900
1941357;2;20;2;3869;-290;1635;-293;8097;4396;-1840
1941367;2;20;2;3869;-733;1428;-577;8635;3964;-1499
1941377;2;20;2;3869;-943;1108;-919;8949;3994;-1194
1941387;2;20;2;3869;-899;974;-979;9001;4484;-958
1941397;2;20;2;3869;-673;955;-803;8935;5092;-829
1941407;2;20;2;3869;-397;865;-556;9065;5540;-942
1941417;2;20;2;3869;3;903;-405;9169;5714;-1144
1941427;2;20;2;3870;453;904;-347;9117;5688;-1524
1941437;2;20;2;3870;554;1049;-518;9096;5309;-2062
1941447;2;20;2;3870;130;1051;-1138;8605;4351;-2163
1941457;2;20;2;3870;-202;1369;-1556;7472;3579;-1880
1941467;2;20;2;3870;-461;2226;-1630;6561;2226;-747
1941477;2;20;2;3870;-688;3044;-2174;6192;269;1291
1941487;2;20;2;3870;-508;3768;-2807;4714;-1239;3485
1941497;2;20;2;3870;627;4292;-2475;2186;-1393;4404
1941507;2;20;2;3870;1816;4780;-849;1598;-389;3743
1941517;2;20;2;3870;2763;4581;-527;2333;-203;2814
1941527;2;20;2;3870;3309;3754;-996;826;-765;1678
1941537;2;20;2;3870;3085;3071;-1080;-1100;-1328;578
1941547;2;20;2;3870;2600;2743;-655;-1262;-1486;-239
1941557;2;20;2;3870;2094;2489;-227;82;-1701;-630
1941567;2;20;2;3870;1799;2183;-264;1889;-2194;-536
1941577;2;20;2;3870;1554;1858;-796;3233;-2618;-466
1941587;2;20;2;3870;1541;1612;-1269;3937;-2859;-437
1941597;2;20;2;3870;1506;1592;-1804;4341;-2676;-586
1941607;2;20;2;3870;1423;1585;-2075;4566;-2108;-953
1941617;2;20;2;3870;1356;1907;-2055;4701;-1488;-1489
1941627;2;20;2;3870;1351;2123;-2002;4716;-675;-1801
1941637;2;20;2;3870;1361;2528;-1850;4497;111;-2096
1941647;2;20;2;3870;1420;2976;-1869;4125;380;-2277
1941657;2;20;2;3870;1444;3185;-1939;3777;470;-2361
1941667;2;20;2;3870;1520;3390;-2211;3414;519;-2560
1941677;2;20;2;3870;1519;3582;-2371;2865;434;-2947
1941687;2;20;2;3870;1391;3578;-2401;2353;-93;-2811
1941697;2;20;2;3870;1127;3639;-2812;1999;-506;-2741
1941707;2;20;2;3870;821;3468;-3019;1797;-456;-2464
1941717;2;20;2;3870;545;3388;-3238;1832;375;-2272
1941727;2;20;2;3870;424;3384;-3127;1777;1837;-2026
1941737;2;20;2;3870;411;3512;-2496;1948;3126;-1549
1941747;2;20;2;3870;676;3564;-2355;2135;3394;-1019
1941757;2;20;2;3870;936;3498;-2799;1984;3352;-435
1941767;2;20;2;3870;1153;3663;-3143;1303;3481;-155
1941777;2;20;2;3870;1395;4136;-3262;1301;3571;-153
1941787;2;20;2;3870;1482;4495;-3618;1267;3480;-363
1941797;2;20;2;3870;1501;4815;-3526;241;3197;-589
1941807;2;20;2;3870;1626;5116;-3358;-238;3029;-614
1941817;2;20;2;3870;1592;5351;-3361;-784;2636;-270
1941827;2;20;2;3870;1306;5505;-3261;-1710;2120;475
1941837;2;20;2;3870;771;5659;-3257;-1895;1589;1603
1941847;2;20;2;3870;216;5718;-3929;-762;1748;2659
1941857;2;20;2;3870;108;5218;-4702;548;2724;3602
1941867;2;20;2;3870;-60;4604;-5454;1733;5157;4137
1941877;2;20;2;3870;417;3922;-5606;463;7894;4250
1941887;2;20;2;3870;1096;3706;-4697;-1573;10635;3722
1941897;2;20;2;3870;1616;3973;-3031;-2756;11639;3415
1941907;2;20;2;3870;2432;4116;-2332;-1994;10106;3375
1941917;2;20;2;3870;3042;4439;-2431;-1626;7847;2855
1941927;2;20;2;3871;3132;4290;-2986;-1751;4891;1995
1941937;2;20;2;3871;2606;4255;-3533;-2224;2166;707
1941947;2;20;2;3871;1244;4710;-3866;-2766;-353;721
1941957;2;20;2;3871;102;4432;-4606;-1985;-1583;1139
1941967;2;20;2;3871;-653;4097;-5280;-1229;-1057;2078
1941977;2;20;2;3871;-556;3512;-5741;-2373;429;3089
1941987;2;20;2;3871;522;3142;-5592;-5530;2357;3870
1941997;2;20;2;3871;2104;3129;-4112;-8615;3498;4212
1942007;2;20;2;3871;3301;3594;-2743;-8928;3331;4192
1942017;2;20;2;3871;4528;4003;-1372;-7222;2087;4338
1942027;2;20;2;3871;5204;4713;-833;-4129;-684;6053
1942037;2;20;2;3871;5983;5247;-1183;-1917;-4005;9507
1942047;2;20;2;3871;6741;4907;-2572;195;-6334;14304
1942057;2;20;2;3871;6742;3288;-4768;432;-6563;18796
1942067;2;20;2;3871;6748;869;-5866;-3062;-4518;21380
1942077;2;20;2;3871;7010;-931;-5519;-8039;448;20653
1942087;2;20;2;3871;7182;-1327;-1832;-10870;6344;17114
1942097;2;20;2;3871;6708;-415;4091;1334;11288;13158
1942107;2;20;2;3871;5761;-832;2272;3141;11142;10482
1942117;2;20;2;3871;4899;-2280;1850;2171;9214;9040
1942127;2;20;2;3871;3836;-2419;-55;2663;8759;8274
1942137;2;20;2;3871;2873;-2468;-1005;3484;9549;7705
1942147;2;20;2;3871;1932;-1815;-1277;3951;10455;6532
1942157;2;20;2;3871;1433;-1421;-1549;3274;10467;6341
1942167;2;20;2;3871;1351;-1031;-1129;835;9998;6871
1942177;2;20;2;3871;1692;-303;-301;-621;9553;7202
1942187;2;20;2;3871;2733;135;175;-77;9580;7536
1942197;2;20;2;3871;3918;749;620;-718;9672;7487
1942207;2;20;2;3871;4754;1938;1848;-2049;9714;6960
1942217;2;20;2;3871;5603;3047;2964;-2171;8135;6898
1942227;2;20;2;3871;6382;3056;2636;-2278;5091;7449
1942237;2;20;2;3871;6251;2683;1467;-2696;2008;8489
1942247;2;20;2;3871;5585;1701;-25;-2777;-254;9771
1942257;2;20;2;3871;4673;655;-1478;-2648;-555;10909
1942267;2;20;2;3871;4153;-640;-2053;-3532;558;11295
1942277;2;20;2;3871;3901;-1721;-983;-3933;2320;10586
1942287;2;20;2;3871;3560;-2154;399;-1817;3925;9594
1942297;2;20;2;3871;3565;-2844;727;-713;4329;8858
1942307;2;20;2;3871;3727;-3415;450;-1484;4535;8397
1942317;2;20;2;3871;4040;-3353;-200;-2067;4959;8159
1942327;2;20;2;3871;4571;-3012;-326;-2626;5719;7519
1942337;2;20;2;3871;4683;-2187;-87;-2769;6163;6655
1942347;2;20;2;3871;4496;-1113;442;-2633;6217;5724
1942357;2;20;2;3871;4072;226;1051;-2564;5502;4769
1942367;2;20;2;3871;3625;1296;1385;-2385;3393;4935
1942377;2;20;2;3871;3555;1375;967;-3050;482;6054
1942387;2;20;2;3871;3771;876;35;-3187;-888;7105
1942397;2;20;2;3871;4034;-18;-807;-3912;-626;7768
1942407;2;20;2;3871;4404;-651;-863;-4888;1080;7708
1942417;2;20;2;3871;4807;-940;-296;-5375;2880;7375
1942427;2;20;2;3872;5510;-661;851;-6135;2334;7542
1942437;2;20;2;3872;5737;-158;919;-6261;-170;9049
1942447;2;20;2;3872;6588;-891;229;-6444;-3969;11345
1942457;2;20;2;3872;6873;-1686;-1124;-5947;-6773;12346
1942467;2;20;2;3872;8056;-3977;-2252;-6181;-7899;11121
1942477;2;20;2;3872;7799;-4697;-2476;-7971;-6656;7556
1942487;2;20;2;3872;7412;-5466;723;-6100;-3103;1241
1942497;2;20;2;3872;4641;-4647;2401;4622;456;-5364
1942507;2;20;2;3872;2239;-5192;-427;8158;3366;-8780
1942517;2;20;2;3872;1935;-4986;-483;5953;4730;-9151
1942527;2;20;2;3872;1215;-3415;126;2970;6839;-8515
1942537;2;20;2;3872;1760;-1944;848;1909;8212;-6964
1942547;2;20;2;3872;2101;-300;1466;977;8796;-4854
1942557;2;20;2;3872;2880;614;2025;195;8467;-2279
1942567;2;20;2;3872;3502;1066;2336;-728;6398;582
1942577;2;20;2;3872;4173;942;2066;-2220;2704;2870
1942587;2;20;2;3872;4456;1059;1551;-3642;-917;3990
1942597;2;20;2;3872;4434;993;1393;-3313;-3526;4334
1942607;2;20;2;3872;4277;651;1159;-1146;-5007;3921
1942617;2;20;2;3872;3878;291;403;882;-5134;3185
1942627;2;20;2;3872;3650;-485;-200;1204;-4364;2015
1942637;2;20;2;3872;3415;-1208;-378;1288;-3090;583
1942647;2;20;2;3872;3429;-1972;-364;2399;-1605;-463
1942657;2;20;2;3872;3748;-2494;-195;3494;273;-940
1942667;2;20;2;3872;4246;-2925;242;3400;1686;-945
1942677;2;20;2;3872;4614;-2928;853;2489;1919;-898
1942687;2;20;2;3872;4913;-2765;1012;1564;1395;88
1942697;2;20;2;3872;5013;-2475;938;725;770;934
1942707;2;20;2;3872;5154;-2075;656;-33;374;1323
1942717;2;20;2;3872;5084;-1579;273;-933;111;1188
1942727;2;20;2;3872;4755;-1197;-28;-1897;-129;774
1942737;2;20;2;3872;4250;-951;-108;-2403;-315;161
1942747;2;20;2;3872;3773;-635;123;-1831;-352;-305
1942757;2;20;2;3872;3446;-502;166;-809;-317;-429
1942767;2;20;2;3872;3344;-535;-36;-635;-162;-256
1942777;2;20;2;3872;3503;-668;27;-1365;-153;216
1942787;2;20;2;3872;3905;-836;487;-1981;-396;652
1942797;2;20;2;3872;4340;-935;781;-1909;-798;878
1942807;2;20;2;3872;4612;-1122;752;-2044;-1371;923
1942817;2;20;2;3872;4657;-1358;544;-2514;-2178;863
1942827;2;20;2;3872;4657;-1474;310;-2888;-2843;685
1942837;2;20;2;3872;4584;-1447;118;-3062;-3111;465
1942847;2;20;2;3872;4618;-1610;39;-2825;-2936;214
1942857;2;20;2;3872;4759;-1727;258;-2170;-2432;-338
1942867;2;20;2;3872;4783;-1703;402;-1259;-2056;-947
1942877;2;20;2;3872;4688;-1803;363;-469;-2005;-1450
1942887;2;20;2;3872;4526;-1927;47;88;-2020;-1876
1942897;2;20;2;3872;4310;-1937;-362;509;-1674;-2239
1942907;2;20;2;3872;4055;-1834;-634;863;-1080;-2515
1942917;2;20;2;3872;3822;-1606;-844;1224;-288;-2652
1942927;2;20;2;3873;3674;-1356;-839;1382;603;-2703
1942937;2;20;2;3873;3603;-1057;-602;1300;1171;-2570
1942947;2;20;2;3873;3608;-794;-423;1210;1186;-2288
1942957;2;20;2;3873;3655;-510;-308;1183;1205;-2005
1942967;2;20;2;3873;3716;-363;-219;1102;1258;-1659
1942977;2;20;2;3873;3733;-207;-207;940;1122;-1300
1942987;2;20;2;3873;3742;-152;-413;721;986;-868
1942997;2;20;2;3873;3685;-156;-588;435;1346;-514
1943007;2;20;2;3873;3701;-215;-381;273;2073;-131
1943017;2;20;2;3873;3881;-325;312;523;2767;230
1943027;2;20;2;3873;4050;-287;935;1156;2884;610
1943037;2;20;2;3873;4296;-390;1127;1131;1796;1087
1943047;2;20;2;3873;4482;-511;521;282;348;1474
1943057;2;20;2;3873;4503;-632;63;-635;-605;1464
1943067;2;20;2;3873;4372;-584;-342;-767;-936;1233
1943077;2;20;2;3873;4133;-596;-667;-492;-726;958
1943087;2;20;2;3873;3883;-596;-746;-260;-330;859
1943097;2;20;2;3873;3769;-658;-653;-326;-2;958
1943107;2;20;2;3873;3830;-666;-458;-432;400;1141
1943117;2;20;2;3873;3944;-625;-126;-417;870;1371
1943127;2;20;2;3873;4198;-655;263;-392;1176;1528
1943137;2;20;2;3873;4459;-673;696;-275;1089;1544
1943147;2;20;2;3873;4705;-728;895;-114;641;1603
1943157;2;20;2;3873;4870;-867;889;-167;37;1428
1943167;2;20;2;3873;4825;-941;638;-546;-459;1286
1943177;2;20;2;3873;4763;-1094;297;-1110;-792;1125
1943187;2;20;2;3873;4589;-1155;-37;-1510;-837;967
1943197;2;20;2;3873;4444;-1135;-284;-1651;-680;965
1943207;2;20;2;3873;4401;-1180;-556;-1741;-699;992
1943217;2;20;2;3873;4344;-1135;-765;-1681;-357;868
1943227;2;20;2;3873;4101;-954;-751;-1607;138;518
1943237;2;20;2;3873;3903;-947;-520;-1373;769;174
1943247;2;20;2;3873;3971;-1120;-248;-805;1463;0
1943257;2;20;2;3873;3979;-1122;-120;-363;1658;-30
1943267;2;20;2;3873;3982;-1130;-31;-386;1411;79
1943277;2;20;2;3873;4114;-1198;-24;-342;1126;282
1943287;2;20;2;3873;4329;-1262;-120;-181;1307;468
1943297;2;20;2;3873;4590;-1292;-159;-180;1721;661
1943307;2;20;2;3873;4822;-1314;-139;-410;2235;712
1943317;2;20;2;3873;4952;-1347;-94;-829;2849;557
1943327;2;20;2;3873;4854;-1351;-34;-1311;3378;252
1943337;2;20;2;3873;4628;-1362;-22;-1728;3671;-75
1943347;2;20;2;3873;4356;-1322;-77;-1912;3710;-309
1943357;2;20;2;3873;4141;-1309;-164;-1864;3525;-354
1943367;2;20;2;3873;3969;-1328;-388;-1757;3242;-288
1943377;2;20;2;3873;3911;-1353;-476;-1500;3129;-310
1943387;2;20;2;3873;3848;-1355;-297;-964;2982;-408
1943397;2;20;2;3873;3806;-1530;-38;-292;2657;-419
1943407;2;20;2;3873;3746;-1675;120;358;2192;-469
1943417;2;20;2;3873;3760;-1852;76;739;1895;-611
1943427;2;20;2;3874;3707;-2000;229;1061;1920;-539
1943437;2;20;2;3874;3724;-2088;266;1862;2099;-563
1943447;2;20;2;3874;3795;-2042;157;2438;2548;-530
1943457;2;20;2;3874;3959;-2007;224;2632;3157;-706
1943467;2;20;2;3874;4162;-1898;341;2715;3651;-947
1943477;2;20;2;3874;4293;-1771;602;2843;3926;-1273
1943487;2;20;2;3874;4398;-1626;840;3197;3894;-1524
1943497;2;20;2;3874;4407;-1468;932;3468;3570;-1624
1943507;2;20;2;3874;4307;-1333;919;3329;3033;-1538
1943517;2;20;2;3874;4120;-1218;887;3540;2472;-1400
1943527;2;20;2;3874;4030;-1064;872;3944;2357;-1410
1943537;2;20;2;3874;4010;-922;970;3939;2482;-1563
1943547;2;20;2;3874;4070;-856;1207;4170;2471;-1758
1943557;2;20;2;3874;4248;-756;1419;4650;2504;-2253
1943567;2;20;2;3874;4466;-585;2006;4932;2616;-2718
1943577;2;20;2;3874;4591;-547;2179;5394;2214;-3179
1943587;2;20;2;3874;4765;-672;2018;5136;1635;-3633
1943597;2;20;2;3874;4738;-626;1860;4948;1149;-4190
1943607;2;20;2;3874;4690;-830;1086;4432;382;-4564
1943617;2;20;2;3874;4376;-877;1022;3236;-19;-5083
1943627;2;20;2;3874;3958;-701;1453;2491;-574;-5865
1943637;2;20;2;3874;3388;-713;2121;2724;-711;-6071
1943647;2;20;2;3874;2671;-835;2709;3287;-858;-6294
1943657;2;20;2;3874;2326;-1068;3052;4056;-1078;-5411
1943667;2;20;2;3874;2270;-1294;2551;3661;-1543;-4280
1943677;2;20;2;3874;2434;-1253;2101;2427;-1917;-3241
1943687;2;20;2;3874;2776;-1065;2108;1987;-1807;-2545
1943697;2;20;2;3874;3249;-856;1992;2159;-1633;-2104
1943707;2;20;2;3874;4055;-987;1752;1727;-1627;-1732
1943717;2;20;2;3874;4909;-1078;1829;1274;-1432;-1999
1943727;2;20;2;3874;5544;-1009;2042;1408;-1222;-2606
1943737;2;20;2;3874;5769;-985;2059;1567;-1310;-3203
1943747;2;20;2;3874;5485;-1042;1836;1642;-1457;-3901
1943757;2;20;2;3874;5053;-1008;1540;1920;-1265;-4564
1943767;2;20;2;3874;4668;-723;1325;2175;-850;-5058
1943777;2;20;2;3874;4351;-282;1399;2496;-407;-5144
1943787;2;20;2;3874;4088;31;1451;2573;-347;-4689
1943797;2;20;2;3874;3997;359;1384;2423;-656;-4263
1943807;2;20;2;3874;4058;500;1314;2089;-481;-3693
1943817;2;20;2;3874;4344;414;1250;2284;-141;-3939
1943827;2;20;2;3874;4583;493;991;2564;57;-4428
1943837;2;20;2;3874;4765;477;832;2287;104;-5098
1943847;2;20;2;3874;4752;452;1097;1989;289;-5774
1943857;2;20;2;3874;4743;379;1420;2289;712;-6314
1943867;2;20;2;3874;4587;494;1510;2609;908;-6518
1943877;2;20;2;3874;4453;493;1257;2706;388;-6350
1943887;2;20;2;3874;4352;519;848;2619;-165;-6134
1943897;2;20;2;3874;4192;678;598;2306;-499;-6011
1943907;2;20;2;3874;3961;794;505;1978;-572;-5908
1943917;2;20;2;3874;3767;946;747;1998;-494;-5890
1943927;2;20;2;3875;3788;1064;1034;2457;-284;-5795
1943937;2;20;2;3875;3856;1120;1316;2925;-197;-5844
1943947;2;20;2;3875;3763;1247;1471;3142;-551;-5890
1943957;2;20;2;3875;3701;1267;1412;3562;-1001;-5968
1943967;2;20;2;3875;3516;1338;838;3420;-1569;-5815
1943977;2;20;2;3875;3305;1349;312;2678;-2258;-5446
1943987;2;20;2;3875;3043;1362;137;2258;-2860;-4949
1943997;2;20;2;3875;2795;1423;29;2572;-2991;-4811
1944007;2;20;2;3875;2719;1536;154;2930;-2708;-4564
1944017;2;20;2;3875;2952;1580;705;3399;-2033;-4561
1944027;2;20;2;3875;3483;1782;1578;4360;-1253;-4714
1944037;2;20;2;3875;3941;1852;2080;4770;-1389;-4972
1944047;2;20;2;3875;4043;1859;1858;4200;-2730;-4909
1944057;2;20;2;3875;4084;1494;1169;3712;-4476;-4632
1944067;2;20;2;3875;3733;1400;229;3410;-5330;-4652
1944077;2;20;2;3875;3386;1470;-409;3409;-5067;-4748
1944087;2;20;2;3875;3071;1687;-515;3553;-3871;-4784
1944097;2;20;2;3875;2961;1870;-206;3630;-2483;-4790
1944107;2;20;2;3875;2972;2086;351;3496;-1464;-4789
1944117;2;20;2;3875;3048;2283;889;3674;-961;-4723
1944127;2;20;2;3875;3245;2477;1257;3916;-1077;-4583
1944137;2;20;2;3875;3572;2651;1387;4171;-1749;-4464
1944147;2;20;2;3875;3710;2783;1146;4201;-2774;-4327
1944157;2;20;2;3875;3674;2740;813;4109;-3665;-4094
1944167;2;20;2;3875;3566;2733;637;4253;-4238;-3947
1944177;2;20;2;3875;3468;2790;476;4325;-4632;-3750
1944187;2;20;2;3875;3424;2804;258;4020;-5027;-3714
1944197;2;20;2;3875;3206;3030;69;3685;-5414;-3612
1944207;2;20;2;3875;3246;2834;-160;3975;-5603;-3452
1944217;2;20;2;3875;3198;2749;-638;4404;-5356;-3976
1944227;2;20;2;3875;2993;2932;-705;4768;-4760;-4240
1944237;2;20;2;3875;3077;2535;-1047;5057;-4009;-4831
1944247;2;20;2;3875;2791;2681;-1149;4597;-3055;-5440
1944257;2;20;2;3875;2666;2788;-960;4174;-2254;-5384
1944267;2;20;2;3875;2683;2867;-675;4006;-1854;-5286
1944277;2;20;2;3875;2487;2975;-537;3822;-1808;-4847
1944287;2;20;2;3875;2383;3000;-262;3479;-2428;-4624
1944297;2;20;2;3875;2336;3037;-65;3107;-3320;-4230
1944307;2;20;2;3875;2395;2988;-16;3057;-4415;-3879
1944317;2;20;2;3875;2324;3075;-125;3301;-5250;-3803
1944327;2;20;2;3875;2449;2917;-125;3966;-5863;-3703
1944337;2;20;2;3875;2345;3033;-599;4945;-6021;-3935
1944347;2;20;2;3875;2368;2997;-1417;5777;-5264;-3965
1944357;2;20;2;3875;2419;2857;-2047;5889;-3512;-3925
1944367;2;20;2;3875;2557;2758;-2104;4707;-1945;-3734
1944377;2;20;2;3875;2807;2633;-1990;2487;-1051;-3426
1944387;2;20;2;3875;3090;2511;-1558;145;-613;-3426
1944397;2;20;2;3875;3405;2817;-344;-728;-317;-3708
1944407;2;20;2;3875;3532;3497;1583;2143;-178;-3925
1944417;2;20;2;3875;3328;3895;1992;6389;-845;-3550
1944427;2;20;2;3876;3186;3809;1296;6922;-2821;-2673
1944437;2;20;2;3876;3168;3815;522;5569;-4994;-1802
1944447;2;20;2;3876;3049;4036;-179;4315;-6273;-984
1944457;2;20;2;3876;2963;4022;-600;3750;-6496;-576
1944467;2;20;2;3876;2986;3754;-948;3810;-6502;-417
1944477;2;20;2;3876;3217;3241;-1227;4045;-6328;-805
1944487;2;20;2;3876;3222;2959;-1410;4964;-5928;-1332
1944497;2;20;2;3876;2934;2900;-1109;7035;-5011;-1917
1944507;2;20;2;3876;3050;1913;-1459;8887;-4677;-2199
1944517;2;20;2;3876;2798;1776;-2254;7798;-5271;-2043
1944527;2;20;2;3876;3255;1350;-2827;4709;-5999;-1590
1944537;2;20;2;3876;3412;1710;-2679;2463;-6447;-1643
1944547;2;20;2;3876;3368;2173;-2704;2292;-6526;-1830
1944557;2;20;2;3876;3052;2468;-2824;2146;-6723;-1779
1944567;2;20;2;3876;2741;2514;-3301;1465;-7131;-1337
1944577;2;20;2;3876;2661;2301;-3755;1257;-6893;-1144
1944587;2;20;2;3876;2653;2206;-3737;1484;-5728;-1317
1944597;2;20;2;3876;2653;2367;-3719;2218;-4366;-1624
1944607;2;20;2;3876;2924;2530;-3937;2799;-3081;-1769
1944617;2;20;2;3876;3469;2587;-4286;2913;-2309;-2042
1944627;2;20;2;3876;4098;2545;-4386;2312;-1223;-2647
1944637;2;20;2;3876;4310;2805;-4172;1240;-289;-3193
1944647;2;20;2;3876;4100;2496;-4023;312;122;-3567
1944657;2;20;2;3876;3605;2291;-3658;-1344;268;-3689
1944667;2;20;2;3876;2594;2470;-3189;-3387;194;-3280
1944677;2;20;2;3876;2064;2362;-2603;-5271;282;-2280
1944687;2;20;2;3876;1571;2530;-1678;-6206;344;-1320
1944697;2;20;2;3876;1423;2778;-1455;-5767;20;-1065
1944707;2;20;2;3876;1489;2708;-1489;-4199;24;-889
1944717;2;20;2;3876;1500;2687;-1799;-2085;296;-941
1944727;2;20;2;3876;1763;2553;-2187;20;543;-1090
1944737;2;20;2;3876;2178;2492;-2769;1871;439;-1361
1944747;2;20;2;3876;2365;2460;-3454;2976;564;-1776
1944757;2;20;2;3876;2362;2443;-4080;3253;974;-2320
1944767;2;20;2;3876;2140;2531;-4523;2590;1859;-2749
1944777;2;20;2;3876;1602;2597;-4465;1277;2917;-2808
1944787;2;20;2;3876;947;2757;-3881;-190;3614;-2358
1944797;2;20;2;3876;319;3064;-3179;-1195;3590;-1367
1944807;2;20;2;3876;-164;3469;-2658;-2534;2937;-155
1944817;2;20;2;3876;-494;3510;-2070;-3714;2394;1173
1944827;2;20;2;3876;-559;3192;-1146;-2972;2081;1860
1944837;2;20;2;3876;-93;2962;-30;1419;1704;1315
1944847;2;20;2;3876;-262;3514;-962;5009;1204;1591
1944857;2;20;2;3876;-204;3124;-2544;4667;914;1426
1944867;2;20;2;3876;-340;3114;-3379;2449;1774;903
1944877;2;20;2;3876;-102;3327;-3577;475;2316;859
1944887;2;20;2;3876;563;3243;-3735;-430;2429;592
1944897;2;20;2;3876;1412;3247;-3957;-899;2198;283
1944907;2;20;2;3876;2278;3412;-3956;-1180;1043;129
1944917;2;20;2;3876;3102;3637;-3842;-669;-634;-317
1944927;2;20;2;3877;3831;3737;-3753;134;-2073;-1207
1944937;2;20;2;3877;4495;3800;-3847;66;-2729;-2562
1944947;2;20;2;3877;4715;4000;-3175;401;-2318;-4468
1944957;2;20;2;3877;4475;4004;-2399;1371;-2243;-5764
1944967;2;20;2;3877;3928;3778;-2326;1661;-2706;-6363
1944977;2;20;2;3877;3320;3519;-2456;1340;-3443;-6693
1944987;2;20;2;3877;2804;3320;-2909;1359;-3931;-6684
1944997;2;20;2;3877;2397;3092;-3527;1459;-3776;-6710
1945007;2;20;2;3877;2017;2953;-3987;1527;-2975;-6829
1945017;2;20;2;3877;1542;3086;-4120;1453;-1784;-6842
1945027;2;20;2;3877;1270;3251;-3954;1462;-698;-6586
1945037;2;20;2;3877;1145;3409;-3568;1386;-43;-6088
1945047;2;20;2;3877;1278;3491;-3288;1410;255;-5736
1945057;2;20;2;3877;1264;3664;-2951;1500;406;-5464
1945067;2;20;2;3877;1232;3669;-2980;1966;355;-5115
1945077;2;20;2;3877;1235;3683;-3316;1786;229;-4898
1945087;2;20;2;3877;1154;3834;-3445;1383;192;-4895
1945097;2;20;2;3877;993;3925;-3543;1560;426;-4991
1945107;2;20;2;3877;841;4065;-3699;2039;976;-5085
1945117;2;20;2;3877;741;4206;-3707;2965;2031;-5166
1945127;2;20;2;3877;808;4177;-3371;4375;3134;-5205
1945137;2;20;2;3877;1063;4024;-3200;5697;4411;-5522
1945147;2;20;2;3877;1306;3922;-2986;6290;5672;-6119
1945157;2;20;2;3877;1426;3874;-2705;5930;6173;-6539
1945167;2;20;2;3877;1546;3785;-2733;4875;5954;-6588
1945177;2;20;2;3877;1468;3753;-2736;3294;5559;-6551
1945187;2;20;2;3877;1304;3734;-2980;2018;5033;-6356
1945197;2;20;2;3877;1043;3700;-3243;1477;5018;-6391
1945207;2;20;2;3877;795;3587;-3298;1562;5633;-6661
1945217;2;20;2;3877;597;3453;-3172;1894;6821;-7116
1945227;2;20;2;3877;512;3305;-2972;2177;8274;-7546
1945237;2;20;2;3877;585;3060;-2801;1892;9760;-7833
1945247;2;20;2;3877;756;2607;-2896;1005;10992;-7930
1945257;2;20;2;3877;886;2329;-2877;-464;12116;-8217
1945267;2;20;2;3877;1036;2075;-2611;-1387;12634;-8121
1945277;2;20;2;3877;1012;1979;-2290;-1596;12794;-7919
1945287;2;20;2;3877;869;1843;-2164;-1744;12809;-7846
1945297;2;20;2;3877;687;1829;-2085;-2097;12623;-7861
1945307;2;20;2;3877;570;1838;-2254;-1677;12436;-7954
1945317;2;20;2;3877;278;1935;-2585;-568;12531;-8182
1945327;2;20;2;3877;-93;1809;-2905;849;12854;-8276
1945337;2;20;2;3877;-295;1767;-2977;2116;13091;-8283
1945347;2;20;2;3877;-321;1842;-2769;3061;13315;-8024
1945357;2;20;2;3877;-270;2008;-2265;3692;13214;-7580
1945367;2;20;2;3877;-307;2225;-1883;3849;12461;-7225
1945377;2;20;2;3877;-376;2316;-1816;3487;11249;-6662
1945387;2;20;2;3877;-254;2322;-1837;2500;9720;-6030
1945397;2;20;2;3877;-130;2433;-1993;1263;8466;-5414
1945407;2;20;2;3877;73;2386;-2135;49;7716;-4908
1945417;2;20;2;3877;285;2427;-2248;-883;7301;-4945
1945427;2;20;2;3878;444;2542;-2299;-1147;7119;-5024
1945437;2;20;2;3878;561;2629;-2126;-1429;6809;-4896
1945447;2;20;2;3878;711;2719;-2016;-2076;6276;-4704
1945457;2;20;2;3878;897;2793;-2074;-2879;5867;-4681
1945467;2;20;2;3878;1024;2854;-1983;-3267;5657;-4789
1945477;2;20;2;3878;1127;2837;-1785;-2981;5252;-4800
1945487;2;20;2;3878;1131;2882;-1694;-2654;4686;-4685
1945497;2;20;2;3878;1037;2869;-1657;-2622;4352;-4632
1945507;2;20;2;3878;935;2817;-1536;-2595;4199;-4669
1945517;2;20;2;3878;861;2693;-1592;-2440;4011;-4453
1945527;2;20;2;3878;799;2619;-1639;-2412;3686;-3868
1945537;2;20;2;3878;850;2508;-1728;-2368;3458;-3144
1945547;2;20;2;3878;987;2338;-2038;-2060;3972;-2842
1945557;2;20;2;3878;1090;2339;-2092;-1674;5083;-3105
1945567;2;20;2;3878;1093;2489;-1921;-1472;5971;-3512
1945577;2;20;2;3878;1009;2595;-1871;-1363;6623;-3987
1945587;2;20;2;3878;835;2664;-1719;-1124;7213;-4385
1945597;2;20;2;3878;623;2688;-1580;-561;7660;-4632
1945607;2;20;2;3878;381;2699;-1516;236;8065;-4630
1945617;2;20;2;3878;294;2607;-1553;871;8350;-4478
1945627;2;20;2;3878;203;2521;-1710;1144;8806;-4440
1945637;2;20;2;3878;117;2413;-1781;1288;9562;-4432
1945647;2;20;2;3878;49;2371;-1803;1533;10219;-4448
1945657;2;20;2;3878;9;2394;-1906;1607;10581;-4333
1945667;2;20;2;3878;-47;2563;-2007;1366;10815;-4253
1945677;2;20;2;3878;-105;2743;-1868;982;10628;-4108
1945687;2;20;2;3878;-190;2935;-1728;1136;9994;-3705
1945697;2;20;2;3878;-102;3052;-1787;2129;9100;-3319
1945707;2;20;2;3878;183;3017;-2137;3102;8128;-3058
1945717;2;20;2;3878;313;3147;-2334;3757;7500;-3394
1945727;2;20;2;3878;366;3568;-2291;3943;6621;-3582
1945737;2;20;2;3878;517;3758;-2320;3716;5331;-3320
1945747;2;20;2;3878;528;3964;-2571;3624;4002;-3001
1945757;2;20;2;3878;575;3962;-2943;3570;2857;-2333
1945767;2;20;2;3878;767;4093;-3147;3144;2418;-2100
1945777;2;20;2;3878;914;4408;-3063;2278;2368;-1851
1945787;2;20;2;3878;1107;4569;-2572;1103;2238;-1253
1945797;2;20;2;3878;1571;4667;-2028;1056;2005;-779
1945807;2;20;2;3878;2119;4737;-1786;2028;1710;-387
1945817;2;20;2;3878;2588;4473;-1962;2917;1259;-61
1945827;2;20;2;3878;2906;3941;-2366;2969;883;263
1945837;2;20;2;3878;2944;3605;-2738;2302;686;332
1945847;2;20;2;3878;2908;3063;-2785;1545;571;652
1945857;2;20;2;3878;2881;2682;-2790;760;512;696
1945867;2;20;2;3878;2760;2571;-2516;288;589;811
1945877;2;20;2;3878;2647;2391;-2192;-90;536;1039
1945887;2;20;2;3878;2531;2251;-1815;32;311;1255
1945897;2;20;2;3878;2481;2169;-1746;593;-51;1452
1945907;2;20;2;3878;2415;2162;-1877;1113;-266;1515
1945917;2;20;2;3878;2411;2137;-2117;1675;-295;1698
