timestamp;subject_id;activity;label;seq;ax;ay;az;gx;gy;gz
1826927;2;20;2;3641;1006;4025;234;-19;62;-83
1826937;2;20;2;3641;1017;4040;240;-92;41;-97
1826947;2;20;2;3641;1005;4044;199;-119;11;-114
1826957;2;20;2;3641;983;4038;207;-101;12;-121
1826967;2;20;2;3641;964;4045;264;-79;-10;-117
1826977;2;20;2;3641;964;4038;255;-30;-10;-103
1826987;2;20;2;3641;972;4049;281;-44;-3;-96
1826997;2;20;2;3641;973;4088;353;-21;-7;-85
1827007;2;20;2;3641;979;4095;351;34;-81;-56
1827017;2;20;2;3641;999;4065;247;-4;-100;-51
1827027;2;20;2;3641;1027;4056;198;-76;-24;-72
1827037;2;20;2;3641;1032;4030;166;-245;88;-112
1827047;2;20;2;3641;1062;4026;210;-314;122;-136
1827057;2;20;2;3641;1020;4036;224;-249;22;-100
1827067;2;20;2;3641;971;4038;243;-234;-23;-58
1827077;2;20;2;3641;937;4044;265;-259;-17;-19
1827087;2;20;2;3641;934;4051;304;-207;43;1
1827097;2;20;2;3641;936;4058;380;-191;1;27
1827107;2;20;2;3641;963;4067;386;-216;-91;44
1827117;2;20;2;3641;971;4044;326;-182;-162;41
1827127;2;20;2;3641;993;4030;220;-70;-75;-8
1827137;2;20;2;3641;970;4009;235;-13;-3;-39
1827147;2;20;2;3641;971;4030;262;-27;17;-56
1827157;2;20;2;3641;989;4033;275;15;30;-64
1827167;2;20;2;3641;977;4055;280;49;35;-57
1827177;2;20;2;3641;984;4035;249;42;45;-64
1827187;2;20;2;3641;1010;4035;184;76;212;-119
1827197;2;20;2;3641;1022;4035;218;58;316;-146
1827207;2;20;2;3641;1002;4081;297;-22;292;-119
1827217;2;20;2;3641;957;4073;328;-131;176;-71
1827227;2;20;2;3641;954;4055;307;-168;92;-33
1827237;2;20;2;3641;953;4034;317;-129;42;-3
1827247;2;20;2;3641;926;4028;327;-131;-21;26
1827257;2;20;2;3641;935;4020;354;-129;-95;51
1827267;2;20;2;3641;939;3993;335;-47;-182;77
1827277;2;20;2;3641;973;3987;261;18;-137;64
1827287;2;20;2;3641;996;4015;239;42;-83;37
1827297;2;20;2;3641;1034;4025;198;75;-54;-4
1827307;2;20;2;3641;997;4020;178;142;61;-62
1827317;2;20;2;3641;993;4031;204;180;174;-112
1827327;2;20;2;3641;951;4035;236;191;234;-140
1827337;2;20;2;3641;950;4028;273;199;219;-132
1827347;2;20;2;3641;928;4020;274;222;256;-139
1827357;2;20;2;3641;933;4039;324;264;216;-114
1827367;2;20;2;3641;921;4053;331;286;134;-88
1827377;2;20;2;3641;925;4060;338;266;18;-50
1827387;2;20;2;3641;920;4053;350;238;-150;-14
1827397;2;20;2;3641;918;4046;315;234;-298;18
1827407;2;20;2;3641;902;4042;214;260;-280;-4
1827417;2;20;2;3641;881;4035;214;272;-206;-31
1827427;2;20;2;3642;905;4042;243;246;-171;-50
1827437;2;20;2;3642;901;4037;293;261;-193;-60
1827447;2;20;2;3642;934;4035;279;259;-269;-63
1827457;2;20;2;3642;929;4022;216;264;-359;-69
1827467;2;20;2;3642;924;4000;111;346;-317;-124
1827477;2;20;2;3642;892;3986;120;387;-240;-174
1827487;2;20;2;3642;880;4015;201;331;-293;-178
1827497;2;20;2;3642;854;4055;233;299;-409;-158
1827507;2;20;2;3642;845;4052;272;347;-496;-132
1827517;2;20;2;3642;858;4065;334;462;-484;-142
1827527;2;20;2;3642;882;4093;427;594;-529;-129
1827537;2;20;2;3642;916;4153;493;678;-681;-77
1827547;2;20;2;3642;949;4178;485;784;-856;-31
1827557;2;20;2;3642;987;4192;422;919;-1005;5
1827567;2;20;2;3642;992;4185;208;901;-1066;9
1827577;2;20;2;3642;976;4167;107;735;-1023;-14
1827587;2;20;2;3642;932;4188;74;449;-953;-19
1827597;2;20;2;3642;903;4180;77;189;-864;-9
1827607;2;20;2;3642;881;4158;102;115;-770;7
1827617;2;20;2;3642;863;4167;88;181;-633;25
1827627;2;20;2;3642;829;4121;154;186;-517;59
1827637;2;20;2;3642;821;4095;272;149;-481;89
1827647;2;20;2;3642;803;4057;384;135;-556;150
1827657;2;20;2;3642;828;4008;353;233;-620;177
1827667;2;20;2;3642;859;3944;287;366;-541;149
1827677;2;20;2;3642;896;3939;307;435;-480;89
1827687;2;20;2;3642;880;3931;306;473;-513;36
1827697;2;20;2;3642;918;3925;258;443;-550;-8
1827707;2;20;2;3642;898;3935;211;470;-546;-79
1827717;2;20;2;3642;864;3952;215;472;-576;-104
1827727;2;20;2;3642;842;3984;238;364;-636;-98
1827737;2;20;2;3642;832;4010;229;270;-670;-60
1827747;2;20;2;3642;894;4010;214;163;-688;-19
1827757;2;20;2;3642;910;4032;247;50;-691;33
1827767;2;20;2;3642;925;4072;284;-32;-768;120
1827777;2;20;2;3642;942;4073;271;-145;-873;196
1827787;2;20;2;3642;954;4031;146;-235;-921;259
1827797;2;20;2;3642;956;4015;85;-302;-866;276
1827807;2;20;2;3642;996;3975;63;-484;-910;337
1827817;2;20;2;3642;1031;3925;-8;-699;-964;396
1827827;2;20;2;3642;1080;3889;-95;-850;-959;424
1827837;2;20;2;3642;1088;3819;-172;-988;-885;427
1827847;2;20;2;3642;1139;3782;-137;-1098;-762;430
1827857;2;20;2;3642;1166;3822;-63;-1055;-664;463
1827867;2;20;2;3642;1237;3790;123;-1035;-527;451
1827877;2;20;2;3642;1194;3872;245;-792;-294;338
1827887;2;20;2;3642;1246;3947;356;-246;-116;227
1827897;2;20;2;3642;1140;4067;380;275;95;166
1827907;2;20;2;3642;1006;4153;299;591;267;114
1827917;2;20;2;3642;880;4292;162;775;387;196
1827927;2;20;2;3643;847;4318;-38;843;462;360
1827937;2;20;2;3643;857;4325;-314;798;563;519
1827947;2;20;2;3643;938;4261;-598;454;731;621
1827957;2;20;2;3643;1040;4185;-597;-169;1041;570
1827967;2;20;2;3643;1115;4158;-287;-670;1272;449
1827977;2;20;2;3643;1139;4112;89;-809;1343;361
1827987;2;20;2;3643;1155;3997;392;-728;1255;277
1827997;2;20;2;3643;1177;3933;580;-640;1053;159
1828007;2;20;2;3643;1222;3875;656;-473;882;25
1828017;2;20;2;3643;1306;3867;695;-306;745;-145
1828027;2;20;2;3643;1361;3859;635;-171;627;-358
1828037;2;20;2;3643;1394;3895;613;-55;543;-543
1828047;2;20;2;3643;1380;3974;625;104;477;-699
1828057;2;20;2;3643;1407;4104;658;276;376;-822
1828067;2;20;2;3643;1423;4201;671;463;216;-921
1828077;2;20;2;3643;1398;4264;639;561;-49;-923
1828087;2;20;2;3643;1280;4313;503;558;-538;-648
1828097;2;20;2;3643;1205;4284;233;307;-1032;-135
1828107;2;20;2;3643;1252;4235;-39;-259;-1234;359
1828117;2;20;2;3643;1378;4199;-116;-1102;-1276;653
1828127;2;20;2;3643;1524;4147;8;-1889;-1259;750
1828137;2;20;2;3643;1512;4044;281;-2328;-1239;640
1828147;2;20;2;3643;1448;3957;473;-2340;-1215;504
1828157;2;20;2;3643;1383;3827;542;-2042;-1294;399
1828167;2;20;2;3643;1379;3691;555;-1644;-1428;310
1828177;2;20;2;3643;1358;3641;573;-1233;-1524;264
1828187;2;20;2;3643;1351;3606;566;-793;-1500;204
1828197;2;20;2;3643;1370;3572;478;-416;-1358;78
1828207;2;20;2;3643;1434;3596;432;-235;-1259;-31
1828217;2;20;2;3643;1484;3629;379;-326;-1300;-130
1828227;2;20;2;3643;1470;3714;394;-538;-1465;-223
1828237;2;20;2;3643;1409;3786;375;-613;-1595;-289
1828247;2;20;2;3643;1357;3872;420;-692;-1724;-345
1828257;2;20;2;3643;1349;3969;384;-770;-1823;-419
1828267;2;20;2;3643;1378;4015;324;-879;-1847;-476
1828277;2;20;2;3643;1404;4010;313;-1047;-1907;-523
1828287;2;20;2;3643;1438;4011;314;-1289;-1943;-573
1828297;2;20;2;3643;1418;3949;300;-1541;-1920;-586
1828307;2;20;2;3643;1415;3940;294;-1609;-1776;-604
1828317;2;20;2;3643;1482;4023;440;-1396;-1660;-594
1828327;2;20;2;3643;1611;4080;514;-955;-1697;-565
1828337;2;20;2;3643;1570;4094;387;-805;-1932;-484
1828347;2;20;2;3643;1421;4068;70;-873;-2132;-454
1828357;2;20;2;3643;1302;4151;-61;-811;-1975;-434
1828367;2;20;2;3643;1116;4276;-9;-697;-1595;-418
1828377;2;20;2;3643;1027;4400;84;-568;-1398;-333
1828387;2;20;2;3643;972;4431;-35;-571;-1320;-151
1828397;2;20;2;3643;1022;4389;-191;-648;-1106;-35
1828407;2;20;2;3643;1095;4377;-155;-702;-705;-20
1828417;2;20;2;3643;1223;4320;75;-553;-362;-95
1828427;2;20;2;3644;1261;4260;247;-252;-224;-156
1828437;2;20;2;3644;1268;4199;330;9;-250;-253
1828447;2;20;2;3644;1222;4182;365;249;-406;-336
1828457;2;20;2;3644;1142;4175;243;394;-759;-353
1828467;2;20;2;3644;1018;4159;-11;296;-1157;-326
1828477;2;20;2;3644;867;4208;-239;58;-1334;-301
1828487;2;20;2;3644;718;4214;-378;-171;-1331;-294
1828497;2;20;2;3644;622;4201;-385;-386;-1192;-327
1828507;2;20;2;3644;536;4215;-320;-509;-1066;-392
1828517;2;20;2;3644;496;4156;-125;-557;-1102;-405
1828527;2;20;2;3644;509;4099;-22;-606;-1306;-414
1828537;2;20;2;3644;537;4010;41;-543;-1523;-424
1828547;2;20;2;3644;558;3886;73;-427;-1592;-491
1828557;2;20;2;3644;590;3773;61;-305;-1558;-605
1828567;2;20;2;3644;616;3685;75;-185;-1478;-666
1828577;2;20;2;3644;651;3641;50;-154;-1484;-763
1828587;2;20;2;3644;706;3670;48;-159;-1512;-784
1828597;2;20;2;3644;783;3658;59;-137;-1557;-813
1828607;2;20;2;3644;833;3720;45;-25;-1512;-894
1828617;2;20;2;3644;893;3838;95;173;-1448;-1013
1828627;2;20;2;3644;868;3912;179;329;-1446;-1123
1828637;2;20;2;3644;768;3951;254;451;-1454;-1215
1828647;2;20;2;3644;635;3988;346;505;-1461;-1271
1828657;2;20;2;3644;524;4086;361;601;-1434;-1272
1828667;2;20;2;3644;516;4150;286;640;-1392;-1205
1828677;2;20;2;3644;564;4142;110;638;-1198;-1178
1828687;2;20;2;3644;629;4235;60;654;-855;-1179
1828697;2;20;2;3644;746;4321;73;670;-470;-1188
1828707;2;20;2;3644;760;4288;56;537;-215;-1119
1828717;2;20;2;3644;738;4299;40;440;-86;-1098
1828727;2;20;2;3644;624;4230;78;339;-57;-935
1828737;2;20;2;3644;518;4203;48;121;-41;-762
1828747;2;20;2;3644;411;4153;111;-144;-60;-550
1828757;2;20;2;3644;419;4153;222;-312;-67;-371
1828767;2;20;2;3644;464;4149;308;-365;-83;-213
1828777;2;20;2;3644;537;4072;350;-278;-118;-75
1828787;2;20;2;3644;538;4010;324;-130;-99;-48
1828797;2;20;2;3644;537;3950;305;-62;-54;-33
1828807;2;20;2;3644;517;3925;329;-56;-17;-61
1828817;2;20;2;3644;526;3933;376;-30;-36;-72
1828827;2;20;2;3644;508;3994;403;34;-109;-64
1828837;2;20;2;3644;536;3973;407;147;-226;-39
1828847;2;20;2;3644;543;4002;322;255;-297;-64
1828857;2;20;2;3644;527;4019;236;334;-248;-94
1828867;2;20;2;3644;494;4005;269;368;-236;-94
1828877;2;20;2;3644;488;4019;330;333;-369;-30
1828887;2;20;2;3644;493;4040;284;284;-522;59
1828897;2;20;2;3644;484;4062;265;268;-592;138
1828907;2;20;2;3644;503;4076;273;229;-610;192
1828917;2;20;2;3644;510;4077;242;181;-553;220
1828927;2;20;2;3645;543;4074;230;163;-412;231
1828937;2;20;2;3645;524;4064;284;119;-288;255
1828947;2;20;2;3645;527;4071;337;118;-186;319
1828957;2;20;2;3645;502;4075;397;141;-137;409
1828967;2;20;2;3645;552;4088;455;156;-90;516
1828977;2;20;2;3645;552;4068;372;137;11;578
1828987;2;20;2;3645;561;4056;316;99;210;587
1828997;2;20;2;3645;559;4069;322;0;368;575
1829007;2;20;2;3645;539;4079;340;-109;442;560
1829017;2;20;2;3645;508;4094;318;-126;474;548
1829027;2;20;2;3645;458;4074;254;-71;565;516
1829037;2;20;2;3645;403;4096;249;-30;681;470
1829047;2;20;2;3645;346;4094;231;-8;743;460
1829057;2;20;2;3645;322;4076;182;36;838;483
1829067;2;20;2;3645;319;4092;195;-21;918;519
1829077;2;20;2;3645;359;4069;190;-87;977;552
1829087;2;20;2;3645;378;4030;191;-112;1097;582
1829097;2;20;2;3645;400;3985;204;-213;1201;596
1829107;2;20;2;3645;458;3927;214;-361;1307;576
1829117;2;20;2;3645;536;3898;241;-532;1432;531
1829127;2;20;2;3645;676;3941;341;-611;1519;375
1829137;2;20;2;3645;900;4117;593;-516;1509;189
1829147;2;20;2;3645;1038;4337;765;-150;1400;-63
1829157;2;20;2;3645;1119;4508;727;209;1050;-329
1829167;2;20;2;3645;1024;4611;466;321;545;-499
1829177;2;20;2;3645;796;4743;-13;206;-30;-441
1829187;2;20;2;3645;581;4732;-532;240;-383;-245
1829197;2;20;2;3645;366;4739;-1004;311;-249;6
1829207;2;20;2;3645;262;4755;-1260;98;303;76
1829217;2;20;2;3645;353;4794;-1122;-267;987;-57
1829227;2;20;2;3645;598;4761;-846;-178;1796;-344
1829237;2;20;2;3645;678;4677;-453;45;2511;-517
1829247;2;20;2;3645;745;4476;-110;-158;2872;-427
1829257;2;20;2;3645;838;4395;266;-493;2879;-288
1829267;2;20;2;3645;978;4285;396;-517;2595;8
1829277;2;20;2;3645;1065;4163;241;-460;2117;326
1829287;2;20;2;3645;1201;3919;-44;-654;1601;541
1829297;2;20;2;3645;1179;3796;-237;-1108;1106;677
1829307;2;20;2;3645;1071;3674;-266;-1598;675;806
1829317;2;20;2;3645;998;3600;-222;-1886;279;848
1829327;2;20;2;3645;943;3605;-140;-1890;-13;896
1829337;2;20;2;3645;917;3607;17;-1678;-291;978
1829347;2;20;2;3645;966;3592;150;-1259;-549;1077
1829357;2;20;2;3645;1122;3522;259;-850;-730;1129
1829367;2;20;2;3645;1283;3596;340;-469;-763;1070
1829377;2;20;2;3645;1521;3612;431;3;-712;959
1829387;2;20;2;3645;1658;3670;356;372;-612;779
1829397;2;20;2;3645;1724;3778;294;561;-562;651
1829407;2;20;2;3645;1704;3922;179;672;-525;617
1829417;2;20;2;3645;1659;4036;78;768;-369;657
1829427;2;20;2;3646;1598;4127;75;771;-295;801
1829437;2;20;2;3646;1560;4244;-40;586;-334;982
1829447;2;20;2;3646;1513;4284;-64;326;-299;1171
1829457;2;20;2;3646;1466;4282;-100;41;-222;1285
1829467;2;20;2;3646;1420;4218;-130;-238;-86;1346
1829477;2;20;2;3646;1382;4124;-17;-408;35;1383
1829487;2;20;2;3646;1338;4050;141;-416;80;1420
1829497;2;20;2;3646;1336;3993;288;-201;110;1439
1829507;2;20;2;3646;1345;3925;406;47;41;1439
1829517;2;20;2;3646;1371;3884;406;272;-78;1392
1829527;2;20;2;3646;1393;3833;342;452;-219;1329
1829537;2;20;2;3646;1354;3796;220;526;-327;1236
1829547;2;20;2;3646;1309;3758;185;461;-404;1169
1829557;2;20;2;3646;1290;3726;98;324;-521;1122
1829567;2;20;2;3646;1279;3685;10;175;-663;1080
1829577;2;20;2;3646;1301;3673;-31;118;-782;1008
1829587;2;20;2;3646;1272;3663;25;178;-847;898
1829597;2;20;2;3646;1262;3706;180;312;-986;802
1829607;2;20;2;3646;1252;3760;302;404;-1273;760
1829617;2;20;2;3646;1285;3782;322;447;-1629;750
1829627;2;20;2;3646;1341;3764;248;465;-1883;726
1829637;2;20;2;3646;1365;3776;131;520;-1936;681
1829647;2;20;2;3646;1423;3797;105;576;-1802;623
1829657;2;20;2;3646;1488;3843;164;630;-1631;566
1829667;2;20;2;3646;1567;3897;287;649;-1605;553
1829677;2;20;2;3646;1604;3977;351;521;-1764;544
1829687;2;20;2;3646;1624;3994;285;344;-1909;485
1829697;2;20;2;3646;1572;3992;292;244;-1960;349
1829707;2;20;2;3646;1504;4028;327;188;-1979;201
1829717;2;20;2;3646;1457;4045;435;190;-2052;70
1829727;2;20;2;3646;1460;4043;475;253;-2203;-20
1829737;2;20;2;3646;1407;4039;454;314;-2362;-122
1829747;2;20;2;3646;1384;4024;357;415;-2402;-204
1829757;2;20;2;3646;1382;3973;238;398;-2334;-277
1829767;2;20;2;3646;1399;3948;143;140;-2314;-331
1829777;2;20;2;3646;1359;3914;147;-118;-2329;-343
1829787;2;20;2;3646;1359;3871;117;-328;-2366;-326
1829797;2;20;2;3646;1398;3814;59;-479;-2296;-340
1829807;2;20;2;3646;1419;3778;75;-604;-2283;-388
1829817;2;20;2;3646;1422;3746;68;-673;-2304;-428
1829827;2;20;2;3646;1403;3714;79;-748;-2258;-485
1829837;2;20;2;3646;1375;3694;72;-836;-2194;-504
1829847;2;20;2;3646;1364;3676;96;-1022;-2170;-497
1829857;2;20;2;3646;1398;3680;120;-1205;-2209;-435
1829867;2;20;2;3646;1429;3707;120;-1269;-2219;-371
1829877;2;20;2;3646;1512;3720;76;-1189;-2119;-333
1829887;2;20;2;3646;1627;3708;15;-1042;-2015;-344
1829897;2;20;2;3646;1714;3678;-151;-849;-1941;-366
1829907;2;20;2;3646;1620;3677;-275;-700;-1650;-426
1829917;2;20;2;3646;1424;3630;-247;-577;-1218;-380
1829927;2;20;2;3647;1224;3655;-149;-341;-681;-247
1829937;2;20;2;3647;1224;3835;43;153;-138;-74
1829947;2;20;2;3647;1382;4043;192;797;281;77
1829957;2;20;2;3647;1615;4199;139;1316;459;196
1829967;2;20;2;3647;1713;4277;-113;1534;411;216
1829977;2;20;2;3647;1691;4271;-584;1452;214;248
1829987;2;20;2;3647;1583;4259;-900;1307;114;304
1829997;2;20;2;3647;1358;4287;-1027;1028;229;333
1830007;2;20;2;3647;1054;4301;-910;652;348;402
1830017;2;20;2;3647;803;4273;-688;606;441;529
1830027;2;20;2;3647;677;4150;-543;983;547;639
1830037;2;20;2;3647;643;3956;-496;1522;794;649
1830047;2;20;2;3647;747;3790;-399;2087;1126;482
1830057;2;20;2;3647;938;3725;-249;2569;1483;207
1830067;2;20;2;3647;1099;3755;-114;2930;1937;-86
1830077;2;20;2;3647;1268;3683;-57;3223;2365;-351
1830087;2;20;2;3647;1360;3787;28;3560;2841;-745
1830097;2;20;2;3647;1325;3922;-16;3888;3120;-945
1830107;2;20;2;3647;1258;4071;-114;4136;3313;-1076
1830117;2;20;2;3647;1168;4168;-312;4191;3473;-1093
1830127;2;20;2;3647;949;4434;-557;3743;3700;-1053
1830137;2;20;2;3647;673;4527;-586;3156;3781;-786
1830147;2;20;2;3647;439;4618;-832;2505;3777;-528
1830157;2;20;2;3647;235;4578;-847;1913;3793;-124
1830167;2;20;2;3647;221;4430;-887;1645;3821;150
1830177;2;20;2;3647;273;4205;-840;1489;3761;387
1830187;2;20;2;3647;296;4089;-778;1408;3652;567
1830197;2;20;2;3647;459;3809;-711;1411;3463;559
1830207;2;20;2;3647;512;3663;-554;1415;3284;402
1830217;2;20;2;3647;552;3615;-518;1675;3134;276
1830227;2;20;2;3647;523;3479;-531;2089;3020;148
1830237;2;20;2;3647;387;3456;-542;2560;2959;127
1830247;2;20;2;3647;300;3348;-633;2959;2833;84
1830257;2;20;2;3647;231;3309;-792;3170;2642;151
1830267;2;20;2;3647;247;3197;-964;3398;2481;222
1830277;2;20;2;3647;303;3063;-978;3621;2368;250
1830287;2;20;2;3647;322;2977;-839;3865;2186;327
1830297;2;20;2;3647;432;2730;-797;4125;1896;348
1830307;2;20;2;3647;442;2500;-825;4297;1720;261
1830317;2;20;2;3647;456;2311;-663;4604;1692;143
1830327;2;20;2;3647;355;2118;-639;4992;1634;128
1830337;2;20;2;3647;323;1889;-739;5545;1761;136
1830347;2;20;2;3647;376;1603;-926;6027;2028;74
1830357;2;20;2;3647;450;1440;-950;6398;2228;127
1830367;2;20;2;3647;540;1209;-974;6575;2405;142
1830377;2;20;2;3647;508;943;-953;6853;2820;-7
1830387;2;20;2;3647;261;873;-725;7368;3635;-265
1830397;2;20;2;3647;-25;811;-419;8074;4628;-512
1830407;2;20;2;3647;-92;787;-226;8869;5410;-770
1830417;2;20;2;3647;1;688;-102;9552;5907;-939
1830427;2;20;2;3648;306;712;-201;10167;5675;-1023
1830437;2;20;2;3648;541;705;-605;11021;4937;-1108
1830447;2;20;2;3648;634;599;-1184;11987;3806;-1132
1830457;2;20;2;3648;627;756;-1538;12273;3072;-1146
1830467;2;20;2;3648;647;1076;-1363;11825;2732;-1244
1830477;2;20;2;3648;618;1615;-869;10706;1793;-1085
1830487;2;20;2;3648;507;1981;-861;10052;788;-554
1830497;2;20;2;3648;343;2254;-1245;10315;31;307
1830507;2;20;2;3648;557;2500;-1886;10574;-537;1570
1830517;2;20;2;3648;1222;2550;-2477;9628;-174;2411
1830527;2;20;2;3648;1940;2656;-2441;7725;1284;2105
1830537;2;20;2;3648;2249;2838;-1623;5981;2729;1196
1830547;2;20;2;3648;2164;2812;-802;5334;3166;268
1830557;2;20;2;3648;1838;2837;-467;5604;3006;-183
1830567;2;20;2;3648;1421;2694;-513;6059;2262;-22
1830577;2;20;2;3648;1165;2537;-1116;6486;1630;424
1830587;2;20;2;3648;814;2527;-1703;6525;1649;788
1830597;2;20;2;3648;598;2445;-2199;6213;1949;979
1830607;2;20;2;3648;557;2559;-2562;6046;2219;841
1830617;2;20;2;3648;635;2670;-2914;5997;2272;652
1830627;2;20;2;3648;849;2798;-3157;5960;2090;354
1830637;2;20;2;3648;1102;2918;-3193;6060;1992;-91
1830647;2;20;2;3648;1257;2944;-3159;6220;1913;-595
1830657;2;20;2;3648;1143;3118;-3226;6257;1859;-979
1830667;2;20;2;3648;896;3180;-3689;6157;1953;-986
1830677;2;20;2;3648;696;3342;-4020;5575;2654;-682
1830687;2;20;2;3648;728;3696;-4297;4767;3457;-376
1830697;2;20;2;3648;1083;4001;-4754;4305;4367;-330
1830707;2;20;2;3648;1519;4220;-5199;3775;4666;-628
1830717;2;20;2;3648;1890;4635;-5650;2808;4734;-1290
1830727;2;20;2;3648;1658;5100;-5737;1636;4797;-2033
1830737;2;20;2;3648;1110;5578;-5740;553;4906;-2503
1830747;2;20;2;3648;432;6240;-5636;-617;5074;-1918
1830757;2;20;2;3648;-165;6629;-5385;-1658;5477;-382
1830767;2;20;2;3648;-243;6207;-5238;-1793;6413;1069
1830777;2;20;2;3648;-184;5680;-4569;-1409;8778;1983
1830787;2;20;2;3648;403;4897;-4093;-1302;10293;2755
1830797;2;20;2;3648;749;5225;-4076;-2225;10595;3379
1830807;2;20;2;3648;1789;4977;-4207;-2075;10412;4207
1830817;2;20;2;3648;3522;3236;-5497;-1534;9514;3693
1830827;2;20;2;3648;4233;1878;-6724;-3446;8864;1240
1830837;2;20;2;3648;3971;2322;-6608;-8713;7186;-1086
1830847;2;20;2;3648;2751;3517;-4443;-14544;4045;-1164
1830857;2;20;2;3648;1291;3998;-3447;-15001;1106;-1419
1830867;2;20;2;3648;538;3753;-3276;-11155;-62;-904
1830877;2;20;2;3648;-349;3338;-3847;-8033;-304;1092
1830887;2;20;2;3648;1200;1801;-3602;-10068;-925;4422
1830897;2;20;2;3648;3385;1029;-670;-11628;-1534;5991
1830907;2;20;2;3648;4346;1658;-1654;-7316;-3294;7267
1830917;2;20;2;3648;6266;743;-3602;-6871;-5930;8688
1830927;2;20;2;3649;6390;1593;-4194;-9192;-8900;9981
1830937;2;20;2;3649;6882;2175;-3941;-8446;-11195;10999
1830947;2;20;2;3649;7628;2388;-3176;-4063;-12033;10767
1830957;2;20;2;3649;7467;2842;-3972;1736;-11820;10722
1830967;2;20;2;3649;7010;2288;-2967;1999;-9713;12635
1830977;2;20;2;3649;5150;1427;416;1146;-6836;19234
1830987;2;20;2;3649;5340;-1171;2794;7152;-1653;23124
1830997;2;20;2;3649;7025;-3441;-766;8474;722;22734
1831007;2;20;2;3649;8563;-4846;-2548;981;2836;15945
1831017;2;20;2;3649;7050;-4956;-2380;239;5671;8567
1831027;2;20;2;3649;4505;-4849;-1671;6351;9168;1509
1831037;2;20;2;3649;2285;-3898;-1620;10513;12359;-1679
1831047;2;20;2;3649;1185;-2070;-965;9844;14787;-1052
1831057;2;20;2;3649;2290;39;-275;6825;16414;216
1831067;2;20;2;3649;4250;2281;1609;3272;16196;770
1831077;2;20;2;3649;5905;3418;2864;3020;9665;3027
1831087;2;20;2;3649;4896;4941;1764;3765;402;6058
1831097;2;20;2;3649;2844;5483;-1198;3834;-6696;9960
1831107;2;20;2;3649;2045;3331;-4138;2767;-8419;13714
1831117;2;20;2;3649;1766;864;-6636;401;-4310;15779
1831127;2;20;2;3649;3479;-1709;-7279;-5936;3403;15940
1831137;2;20;2;3649;6095;-3177;-4503;-14722;10792;14088
1831147;2;20;2;3649;8336;-3197;4050;-18460;14910;11224
1831157;2;20;2;3649;7757;-1483;9743;-2699;12276;9229
1831167;2;20;2;3649;6803;-1535;2153;5442;7222;9279
1831177;2;20;2;3649;5997;-3193;-1797;1013;5293;8609
1831187;2;20;2;3649;4892;-3192;-2422;-880;6395;7136
1831197;2;20;2;3649;3192;-1582;-2333;-218;7985;6534
1831207;2;20;2;3649;2838;-1188;-1894;-2149;8718;6106
1831217;2;20;2;3649;1968;-775;-1062;-4852;8937;5841
1831227;2;20;2;3649;1781;-359;-465;-5234;9141;6066
1831237;2;20;2;3649;2720;-40;-166;-5708;8484;6777
1831247;2;20;2;3649;4347;16;460;-7267;6518;7588
1831257;2;20;2;3649;6607;-347;1125;-7362;2507;8602
1831267;2;20;2;3649;8562;-1187;-288;-6931;-2930;8859
1831277;2;20;2;3649;8430;-1793;-2771;-6462;-6513;7997
1831287;2;20;2;3649;7483;-3102;-4587;-5290;-6421;7003
1831297;2;20;2;3649;6426;-5198;-5554;-8358;-4083;4727
1831307;2;20;2;3649;6310;-6792;-751;-14899;-1019;4836
1831317;2;20;2;3649;5904;-6057;5667;-9674;401;3031
1831327;2;20;2;3649;4774;-4612;2924;-948;700;2341
1831337;2;20;2;3649;4200;-4134;1003;-715;1640;1948
1831347;2;20;2;3649;3768;-3353;1040;766;2950;920
1831357;2;20;2;3649;3562;-2358;309;4878;3938;-243
1831367;2;20;2;3649;3250;-1453;-602;6410;4645;-959
1831377;2;20;2;3649;2867;-334;-854;5046;5316;-1717
1831387;2;20;2;3649;2921;544;-616;2822;5789;-2241
1831397;2;20;2;3649;3155;1157;-683;-140;5940;-3766
1831407;2;20;2;3649;3032;1718;-361;-4391;6004;-4582
1831417;2;20;2;3649;2752;2155;502;-8636;4710;-4428
1831427;2;20;2;3650;2300;2420;1353;-10008;2285;-3733
1831437;2;20;2;3650;1852;2466;2376;-5867;-188;-2653
1831447;2;20;2;3650;2032;1533;1452;-407;-3015;-785
1831457;2;20;2;3650;2419;531;-135;1799;-4712;1435
1831467;2;20;2;3650;3152;-615;-1077;2171;-4998;3331
1831477;2;20;2;3650;4356;-1865;-1381;1149;-4348;4341
1831487;2;20;2;3650;5479;-2436;-1375;-862;-3537;3799
1831497;2;20;2;3650;6147;-1771;-873;-2598;-3619;3211
1831507;2;20;2;3650;6652;-1644;-769;-3082;-4761;2755
1831517;2;20;2;3650;6698;-1712;-903;-3249;-5785;1936
1831527;2;20;2;3650;5570;-1412;-1295;-3404;-6210;1167
1831537;2;20;2;3650;4695;-1669;-1467;-3065;-5865;331
1831547;2;20;2;3650;4000;-1606;-1588;-1942;-4828;-265
1831557;2;20;2;3650;3858;-1693;-1538;582;-3075;-720
1831567;2;20;2;3650;3989;-1917;-1583;1983;-1424;-930
1831577;2;20;2;3650;4194;-1590;-1492;2600;-241;-1498
1831587;2;20;2;3650;4426;-1323;-1195;2924;812;-2000
1831597;2;20;2;3650;4475;-1016;-946;3382;1569;-2378
1831607;2;20;2;3650;4477;-840;-808;3794;1810;-2435
1831617;2;20;2;3650;4306;-740;-795;3438;1400;-2375
1831627;2;20;2;3650;4267;-732;-854;2588;466;-2002
1831637;2;20;2;3650;4104;-674;-933;1266;-753;-1676
1831647;2;20;2;3650;3709;-205;-798;293;-1874;-1467
1831657;2;20;2;3650;3251;94;-712;901;-2361;-1021
1831667;2;20;2;3650;3192;-82;-907;2021;-2372;-486
1831677;2;20;2;3650;3668;-638;-1209;2066;-2308;-266
1831687;2;20;2;3650;4104;-895;-1470;955;-2076;-457
1831697;2;20;2;3650;4443;-969;-1325;17;-1500;-742
1831707;2;20;2;3650;4741;-917;-873;93;-885;-1050
1831717;2;20;2;3650;5007;-928;-479;385;-760;-1188
1831727;2;20;2;3650;5087;-953;-327;356;-1108;-1316
1831737;2;20;2;3650;4977;-791;-419;-94;-1285;-1514
1831747;2;20;2;3650;4711;-762;-851;-807;-931;-1853
1831757;2;20;2;3650;4322;-649;-1401;-1525;57;-2398
1831767;2;20;2;3650;4269;-387;-2008;-1611;1736;-2712
1831777;2;20;2;3650;4645;-235;-2488;-2306;3798;-3575
1831787;2;20;2;3650;4898;260;-1996;-3121;5831;-4516
1831797;2;20;2;3650;5012;679;-1088;-3711;6655;-5228
1831807;2;20;2;3650;4923;936;133;-3301;5796;-5224
1831817;2;20;2;3650;5046;500;647;-1819;3403;-4454
1831827;2;20;2;3650;4730;58;339;-1141;1322;-4151
1831837;2;20;2;3650;4291;-363;153;-610;-60;-3998
1831847;2;20;2;3650;4345;-923;-571;179;-1410;-3826
1831857;2;20;2;3650;4707;-1411;-968;454;-2657;-4359
1831867;2;20;2;3650;4135;-1606;-1356;1390;-3730;-5084
1831877;2;20;2;3650;3446;-1830;-1906;2948;-3813;-5475
1831887;2;20;2;3650;2698;-2054;-2273;3945;-3303;-5283
1831897;2;20;2;3650;2360;-2095;-2376;3477;-2874;-4735
1831907;2;20;2;3650;2454;-1923;-2355;1785;-2744;-3649
1831917;2;20;2;3650;3181;-1683;-2068;-285;-2412;-2593
1831927;2;20;2;3651;4299;-1173;-1346;-1953;-1561;-2069
1831937;2;20;2;3651;5134;-598;-387;-1979;-899;-2247
1831947;2;20;2;3651;5937;-234;-51;-236;-744;-2899
1831957;2;20;2;3651;6178;-210;-352;2460;-139;-3706
1831967;2;20;2;3651;6299;-388;-921;4135;335;-4975
1831977;2;20;2;3651;6255;-563;-1415;4725;891;-5860
1831987;2;20;2;3651;5796;-465;-1577;4540;1653;-6608
1831997;2;20;2;3651;5198;-355;-1553;3876;2344;-6847
1832007;2;20;2;3651;4757;-106;-1619;2666;2923;-6785
1832017;2;20;2;3651;4363;136;-1620;1842;3380;-6747
1832027;2;20;2;3651;4249;71;-1618;1971;3759;-6794
1832037;2;20;2;3651;4219;100;-1640;2434;3678;-6987
1832047;2;20;2;3651;4090;101;-1644;2659;3390;-7211
1832057;2;20;2;3651;3817;97;-1438;2811;2894;-7460
1832067;2;20;2;3651;3676;110;-1196;2828;2674;-7467
1832077;2;20;2;3651;3767;240;-698;2618;3208;-7363
1832087;2;20;2;3651;3895;472;-149;2809;3454;-7005
1832097;2;20;2;3651;4180;734;50;3628;2964;-6589
1832107;2;20;2;3651;4364;1038;-285;4567;1879;-6143
1832117;2;20;2;3651;4356;1187;-653;5292;972;-5714
1832127;2;20;2;3651;4399;1094;-1191;5598;288;-5853
1832137;2;20;2;3651;4337;927;-2063;5456;804;-6658
1832147;2;20;2;3651;3930;837;-2636;5050;2730;-7762
1832157;2;20;2;3651;3655;823;-2712;4214;5114;-8677
1832167;2;20;2;3651;3430;1051;-2355;2428;7535;-9343
1832177;2;20;2;3651;3348;1440;-1520;158;9611;-9802
1832187;2;20;2;3651;3291;1957;-376;-1296;10694;-10017
1832197;2;20;2;3651;3189;2593;710;-1421;10032;-9540
1832207;2;20;2;3651;3131;2912;1117;-455;8300;-8575
1832217;2;20;2;3651;3016;2954;1027;976;6827;-7973
1832227;2;20;2;3651;2807;2896;760;2496;5905;-7618
1832237;2;20;2;3651;2670;2631;436;3352;5239;-7371
1832247;2;20;2;3651;2522;2357;81;3396;4927;-7363
1832257;2;20;2;3651;2251;2134;-100;2833;5199;-7384
1832267;2;20;2;3651;2140;1960;238;1900;6087;-7232
1832277;2;20;2;3651;2540;2093;1147;1124;6768;-7069
1832287;2;20;2;3651;2816;2390;2029;1145;5968;-6601
1832297;2;20;2;3651;3002;2559;2400;2147;3823;-5961
1832307;2;20;2;3651;3043;2561;2125;3268;1777;-5560
1832317;2;20;2;3651;3014;2586;1657;4045;319;-5343
1832327;2;20;2;3651;3006;2497;1010;4328;-469;-5300
1832337;2;20;2;3651;2882;2748;724;4297;-596;-5575
1832347;2;20;2;3651;2868;2994;672;4221;-558;-5909
1832357;2;20;2;3651;2952;3117;598;4248;-675;-6064
1832367;2;20;2;3651;3014;3044;362;4511;-992;-6212
1832377;2;20;2;3651;2711;3162;140;4510;-1186;-6126
1832387;2;20;2;3651;2576;3179;197;4280;-1453;-5768
1832397;2;20;2;3651;2475;3175;331;3953;-1978;-5285
1832407;2;20;2;3651;2300;3286;423;3603;-2522;-4766
1832417;2;20;2;3651;2259;3193;489;3465;-3073;-4172
1832427;2;20;2;3652;2285;3153;579;3438;-3838;-3671
1832437;2;20;2;3652;2461;3153;567;3562;-4839;-3297
1832447;2;20;2;3652;2508;3292;353;3753;-5824;-3053
1832457;2;20;2;3652;2548;3278;150;4570;-6569;-2906
1832467;2;20;2;3652;2434;3345;-95;5839;-6815;-2894
1832477;2;20;2;3652;2426;3320;-525;6931;-6945;-2835
1832487;2;20;2;3652;2318;3259;-930;7485;-6674;-2917
1832497;2;20;2;3652;2296;3188;-1074;7837;-6628;-2942
1832507;2;20;2;3652;2321;3240;-1173;7560;-7145;-2905
1832517;2;20;2;3652;2325;3270;-1182;7078;-8006;-2667
1832527;2;20;2;3652;2205;3174;-1199;6823;-8821;-2565
1832537;2;20;2;3652;2059;3004;-1469;6844;-9134;-2573
1832547;2;20;2;3652;1795;3019;-1762;7157;-8789;-2799
1832557;2;20;2;3652;1688;3019;-1998;7417;-8176;-2716
1832567;2;20;2;3652;1665;2989;-2467;7325;-7472;-2772
1832577;2;20;2;3652;1715;2918;-2749;6852;-6239;-2947
1832587;2;20;2;3652;1811;2841;-2745;5840;-4807;-3331
1832597;2;20;2;3652;1941;2815;-2570;4420;-3626;-3218
1832607;2;20;2;3652;2304;2524;-2274;3229;-2608;-3099
1832617;2;20;2;3652;2702;2389;-2001;2416;-1877;-3414
1832627;2;20;2;3652;2892;2670;-1408;1805;-1311;-3794
1832637;2;20;2;3652;3118;2761;-682;2230;-1364;-4274
1832647;2;20;2;3652;3092;2911;-330;2853;-2046;-4955
1832657;2;20;2;3652;2797;3195;-161;3637;-3102;-5563
1832667;2;20;2;3652;2461;3494;-479;4625;-4110;-5887
1832677;2;20;2;3652;2021;3589;-1098;5256;-4985;-5852
1832687;2;20;2;3652;1528;3628;-1598;5119;-6078;-5379
1832697;2;20;2;3652;1102;3727;-2238;3929;-7103;-4667
1832707;2;20;2;3652;972;3895;-2716;1962;-7016;-4281
1832717;2;20;2;3652;1034;3940;-2848;846;-5922;-4154
1832727;2;20;2;3652;1382;3795;-2832;750;-4413;-4178
1832737;2;20;2;3652;2010;3425;-2633;1233;-3366;-4357
1832747;2;20;2;3652;2708;3132;-2628;2201;-2949;-4815
1832757;2;20;2;3652;3423;2958;-2828;3568;-2805;-5475
1832767;2;20;2;3652;4093;2929;-2890;4755;-3073;-6321
1832777;2;20;2;3652;4723;2835;-3253;5519;-4036;-6915
1832787;2;20;2;3652;4794;2835;-3538;6166;-5184;-8032
1832797;2;20;2;3652;3927;2966;-3713;6695;-7018;-8427
1832807;2;20;2;3652;2632;2357;-4392;6327;-9110;-7994
1832817;2;20;2;3652;1042;1888;-5045;4910;-9655;-7357
1832827;2;20;2;3652;94;2067;-5261;2938;-8195;-6643
1832837;2;20;2;3652;-471;2775;-5067;908;-5913;-5663
1832847;2;20;2;3652;-648;3443;-4680;-584;-3946;-4213
1832857;2;20;2;3652;-357;3727;-4272;-1974;-2751;-2434
1832867;2;20;2;3652;72;3874;-3807;-3418;-1798;-1282
1832877;2;20;2;3652;780;3471;-3304;-3944;-1443;-616
1832887;2;20;2;3652;1321;2746;-3118;-2962;-1489;-291
1832897;2;20;2;3652;1644;1701;-3189;-1582;-1217;-32
1832907;2;20;2;3652;1738;1133;-3166;-591;-399;-410
1832917;2;20;2;3652;1634;1219;-3033;-624;428;-840
1832927;2;20;2;3653;1467;1592;-2783;-791;786;-1017
1832937;2;20;2;3653;1349;1939;-2506;-1033;444;-625
1832947;2;20;2;3653;871;2806;-2678;-885;-144;-321
1832957;2;20;2;3653;500;2983;-2756;-540;-409;330
1832967;2;20;2;3653;-24;3185;-2919;-150;-164;439
1832977;2;20;2;3653;-283;3472;-3232;116;328;401
1832987;2;20;2;3653;-411;3375;-3577;375;1236;474
1832997;2;20;2;3653;-584;3243;-3624;419;1918;453
1833007;2;20;2;3653;-654;3206;-3661;33;2184;265
1833017;2;20;2;3653;-740;3121;-3513;-487;2360;2
1833027;2;20;2;3653;-938;3045;-3007;-1224;2113;-252
1833037;2;20;2;3653;-1165;3011;-2474;-2041;1412;-575
1833047;2;20;2;3653;-1367;3033;-2006;-2090;655;-721
1833057;2;20;2;3653;-1501;3101;-1858;-987;-407;-831
1833067;2;20;2;3653;-1616;3423;-2077;808;-2088;-1018
1833077;2;20;2;3653;-1898;3759;-2945;2742;-3609;-1044
1833087;2;20;2;3653;-2166;4028;-4061;4152;-4487;-535
1833097;2;20;2;3653;-2214;4236;-5031;4572;-5023;186
1833107;2;20;2;3653;-1737;4207;-6192;4276;-5063;914
1833117;2;20;2;3653;-991;4046;-7220;3545;-4400;1074
1833127;2;20;2;3653;-293;3937;-7661;2351;-3726;1040
1833137;2;20;2;3653;407;3760;-7566;872;-3487;751
1833147;2;20;2;3653;948;3731;-7030;-567;-3612;247
1833157;2;20;2;3653;1152;3820;-6498;-2052;-3849;86
1833167;2;20;2;3653;1396;3812;-5925;-3455;-3851;-333
1833177;2;20;2;3653;1435;4000;-5059;-4571;-3752;-686
1833187;2;20;2;3653;1439;4298;-4045;-4533;-3809;-1065
1833197;2;20;2;3653;1414;4322;-3892;-4164;-3990;-1583
1833207;2;20;2;3653;1287;4037;-3706;-2854;-3520;-2296
1833217;2;20;2;3653;1168;3609;-3806;-1762;-2897;-2963
1833227;2;20;2;3653;1030;3371;-4179;-2397;-1892;-3905
1833237;2;20;2;3653;881;3185;-4112;-4097;10;-4841
1833247;2;20;2;3653;637;3141;-3518;-5892;2222;-6018
1833257;2;20;2;3653;114;3374;-2444;-6758;3637;-6702
1833267;2;20;2;3653;-398;3370;-1970;-6335;4168;-6788
1833277;2;20;2;3653;-698;3293;-1868;-5013;4704;-6452
1833287;2;20;2;3653;-1002;3334;-2066;-3846;5428;-6097
1833297;2;20;2;3653;-1205;3238;-2191;-3261;6112;-5583
1833307;2;20;2;3653;-1304;3116;-2420;-2767;6999;-5167
1833317;2;20;2;3653;-1267;2929;-2665;-2454;7834;-4723
1833327;2;20;2;3653;-1198;2734;-2848;-2645;8490;-4201
1833337;2;20;2;3653;-902;2655;-2677;-3452;8774;-3970
1833347;2;20;2;3653;-565;2610;-2671;-4169;9160;-4006
1833357;2;20;2;3653;-167;2507;-2558;-4240;10097;-4427
1833367;2;20;2;3653;40;2538;-2359;-4341;11126;-4942
1833377;2;20;2;3653;3;2642;-2031;-4792;12161;-5381
1833387;2;20;2;3653;-78;2660;-1585;-5348;13238;-5847
1833397;2;20;2;3653;-268;2816;-1099;-5322;13958;-6228
1833407;2;20;2;3653;-623;3027;-844;-4571;14114;-6262
1833417;2;20;2;3653;-1057;3032;-1002;-3197;13950;-5915
1833427;2;20;2;3654;-1267;2861;-1469;-1660;13948;-5325
1833437;2;20;2;3654;-1376;2651;-1829;-981;13863;-4684
1833447;2;20;2;3654;-1445;2448;-2283;-946;13717;-4011
1833457;2;20;2;3654;-1416;2252;-2501;-1760;13690;-3592
1833467;2;20;2;3654;-1369;2181;-2492;-3323;13691;-3467
1833477;2;20;2;3654;-1343;2257;-2201;-5109;13420;-3365
1833487;2;20;2;3654;-1280;2357;-1854;-6468;13093;-3239
1833497;2;20;2;3654;-1202;2521;-1466;-7156;12875;-3265
1833507;2;20;2;3654;-1069;2722;-985;-7287;12732;-3327
1833517;2;20;2;3654;-928;2848;-570;-6923;12451;-3376
1833527;2;20;2;3654;-799;2936;-206;-5919;11947;-3307
1833537;2;20;2;3654;-683;2955;-63;-4324;11127;-3038
1833547;2;20;2;3654;-392;2750;-213;-2571;10204;-2432
1833557;2;20;2;3654;-74;2508;-554;-1287;9251;-1852
1833567;2;20;2;3654;159;2366;-1020;-989;8354;-1638
1833577;2;20;2;3654;167;2270;-1321;-1629;7689;-1717
1833587;2;20;2;3654;114;2243;-1341;-2596;7323;-1859
1833597;2;20;2;3654;12;2366;-1230;-3381;7006;-1902
1833607;2;20;2;3654;80;2448;-973;-3717;6890;-1757
1833617;2;20;2;3654;124;2687;-572;-3696;6822;-1568
1833627;2;20;2;3654;407;2961;-199;-3269;6530;-1408
1833637;2;20;2;3654;518;3240;-88;-2095;6251;-1348
1833647;2;20;2;3654;505;3186;-177;-920;6137;-1038
1833657;2;20;2;3654;712;3227;-649;76;5851;-1164
1833667;2;20;2;3654;659;3213;-1130;804;5759;-1208
1833677;2;20;2;3654;727;3065;-1524;1217;5745;-1202
1833687;2;20;2;3654;757;3018;-1834;1503;5528;-1269
1833697;2;20;2;3654;745;2902;-2157;1424;5280;-1243
1833707;2;20;2;3654;606;2805;-2371;832;5306;-1370
1833717;2;20;2;3654;424;2814;-2303;-251;5619;-1632
1833727;2;20;2;3654;166;2978;-1919;-1420;6170;-1876
1833737;2;20;2;3654;30;3193;-1355;-1993;6709;-1970
1833747;2;20;2;3654;-41;3403;-878;-1620;7026;-1866
1833757;2;20;2;3654;-128;3517;-679;-492;7377;-1787
1833767;2;20;2;3654;-255;3602;-804;857;7858;-1656
1833777;2;20;2;3654;-217;3563;-1050;2278;8493;-1710
1833787;2;20;2;3654;-86;3514;-1373;3049;9219;-1817
1833797;2;20;2;3654;150;3365;-1586;2812;9748;-1898
1833807;2;20;2;3654;424;3331;-1596;1817;9952;-2155
1833817;2;20;2;3654;480;3335;-1605;408;10141;-2804
1833827;2;20;2;3654;183;3583;-1281;-653;10656;-3867
1833837;2;20;2;3654;40;3679;-813;-717;10939;-4598
1833847;2;20;2;3654;-269;3918;-543;-225;10994;-5161
1833857;2;20;2;3654;-601;4011;-349;529;10701;-5206
1833867;2;20;2;3654;-901;4086;-334;1443;10320;-4853
1833877;2;20;2;3654;-1100;3983;-646;2136;10070;-4260
1833887;2;20;2;3654;-1250;3984;-1330;2011;10234;-3694
1833897;2;20;2;3654;-1160;4004;-1661;1325;10611;-3216
1833907;2;20;2;3654;-1090;3996;-1879;542;10194;-2635
1833917;2;20;2;3654;-859;3860;-1928;460;9759;-2104
