timestamp;subject_id;activity;label;seq;ax;ay;az;gx;gy;gz
1803427;2;20;2;3594;745;4065;12;-477;-275;-87
1803437;2;20;2;3594;738;4059;13;-430;-206;-98
1803447;2;20;2;3594;749;4071;126;-415;-234;-96
1803457;2;20;2;3594;743;4114;152;-365;-316;-74
1803467;2;20;2;3594;739;4113;78;-312;-414;-53
1803477;2;20;2;3594;742;4116;-17;-340;-446;-45
1803487;2;20;2;3594;749;4111;-116;-422;-366;-59
1803497;2;20;2;3594;738;4116;-83;-533;-246;-41
1803507;2;20;2;3594;757;4103;10;-602;-234;-28
1803517;2;20;2;3594;748;4126;9;-673;-270;15
1803527;2;20;2;3594;724;4129;-15;-742;-224;38
1803537;2;20;2;3594;743;4118;39;-817;-148;45
1803547;2;20;2;3594;761;4103;129;-893;-133;48
1803557;2;20;2;3594;777;4091;225;-880;-183;68
1803567;2;20;2;3594;762;4092;277;-766;-258;97
1803577;2;20;2;3594;799;4074;165;-615;-239;95
1803587;2;20;2;3594;819;4018;87;-535;-116;72
1803597;2;20;2;3594;873;4051;101;-523;-1;-49
1803607;2;20;2;3594;843;4046;175;-490;41;-81
1803617;2;20;2;3594;816;4056;233;-414;34;-96
1803627;2;20;2;3594;778;4058;251;-286;64;-84
1803637;2;20;2;3594;799;4070;239;-166;109;-64
1803647;2;20;2;3594;815;4074;223;-87;139;-59
1803657;2;20;2;3594;828;4070;201;-70;186;-65
1803667;2;20;2;3594;804;4093;138;-27;282;-78
1803677;2;20;2;3594;810;4098;133;-28;374;-96
1803687;2;20;2;3594;806;4073;100;-18;410;-99
1803697;2;20;2;3594;788;4083;79;-16;454;-114
1803707;2;20;2;3594;783;4095;118;-30;460;-124
1803717;2;20;2;3594;748;4119;128;-90;392;-106
1803727;2;20;2;3594;736;4127;97;-139;371;-108
1803737;2;20;2;3594;720;4136;79;-165;422;-125
1803747;2;20;2;3594;754;4123;135;-161;447;-116
1803757;2;20;2;3594;746;4130;159;-193;431;-108
1803767;2;20;2;3594;768;4127;226;-242;366;-101
1803777;2;20;2;3594;760;4112;243;-293;267;-76
1803787;2;20;2;3594;767;4088;252;-301;149;-47
1803797;2;20;2;3594;751;4059;238;-249;64;-32
1803807;2;20;2;3594;741;4049;174;-204;106;-37
1803817;2;20;2;3594;755;4049;189;-182;161;-35
1803827;2;20;2;3594;794;4078;207;-176;188;-49
1803837;2;20;2;3594;827;4075;219;-133;197;-44
1803847;2;20;2;3594;842;4055;218;-170;212;-83
1803857;2;20;2;3594;854;4061;198;-207;206;-113
1803867;2;20;2;3594;816;4007;157;-260;233;-128
1803877;2;20;2;3594;789;4013;208;-306;257;-145
1803887;2;20;2;3594;768;4036;284;-340;204;-122
1803897;2;20;2;3594;759;4074;322;-298;65;-64
1803907;2;20;2;3594;734;4099;284;-269;-75;-13
1803917;2;20;2;3594;764;4102;243;-299;-133;-18
1803927;2;20;2;3595;742;4081;222;-318;-125;-20
1803937;2;20;2;3595;738;4105;292;-305;-152;-16
1803947;2;20;2;3595;738;4115;372;-154;-241;16
1803957;2;20;2;3595;753;4127;342;53;-277;43
1803967;2;20;2;3595;768;4072;204;80;-288;52
1803977;2;20;2;3595;804;4055;94;-34;-219;40
1803987;2;20;2;3595;812;4051;51;-162;-134;18
1803997;2;20;2;3595;795;4070;64;-278;-62;9
1804007;2;20;2;3595;768;4089;130;-282;-53;28
1804017;2;20;2;3595;772;4090;141;-302;-108;47
1804027;2;20;2;3595;756;4096;211;-368;-136;37
1804037;2;20;2;3595;743;4104;240;-386;-171;21
1804047;2;20;2;3595;725;4113;291;-355;-238;31
1804057;2;20;2;3595;721;4115;317;-311;-352;38
1804067;2;20;2;3595;725;4099;304;-267;-438;40
1804077;2;20;2;3595;727;4093;271;-237;-462;28
1804087;2;20;2;3595;726;4076;197;-172;-472;-4
1804097;2;20;2;3595;732;4082;180;-57;-394;-12
1804107;2;20;2;3595;763;4073;169;-1;-349;-52
1804117;2;20;2;3595;747;4066;167;33;-344;-68
1804127;2;20;2;3595;736;4077;193;135;-320;-71
1804137;2;20;2;3595;722;4087;197;265;-320;-64
1804147;2;20;2;3595;716;4080;210;291;-306;-58
1804157;2;20;2;3595;695;4067;235;284;-354;-39
1804167;2;20;2;3595;700;4077;220;241;-362;-41
1804177;2;20;2;3595;680;4119;210;176;-374;-65
1804187;2;20;2;3595;700;4120;246;208;-469;-59
1804197;2;20;2;3595;698;4113;152;309;-577;-62
1804207;2;20;2;3595;664;4095;92;369;-623;-73
1804217;2;20;2;3595;661;4043;80;348;-608;-84
1804227;2;20;2;3595;677;4069;25;350;-498;-156
1804237;2;20;2;3595;698;4075;104;366;-394;-216
1804247;2;20;2;3595;678;4100;227;307;-428;-240
1804257;2;20;2;3595;671;4115;318;292;-621;-212
1804267;2;20;2;3595;619;4035;276;336;-785;-149
1804277;2;20;2;3595;632;4076;199;300;-816;-177
1804287;2;20;2;3595;650;4066;249;295;-831;-142
1804297;2;20;2;3595;691;4082;220;292;-962;-133
1804307;2;20;2;3595;707;4086;149;258;-1049;-134
1804317;2;20;2;3595;718;4057;77;171;-1064;-173
1804327;2;20;2;3595;718;4070;96;118;-1015;-233
1804337;2;20;2;3595;748;4103;151;106;-955;-289
1804347;2;20;2;3595;747;4136;201;94;-930;-341
1804357;2;20;2;3595;752;4162;251;91;-974;-350
1804367;2;20;2;3595;745;4163;182;54;-1053;-299
1804377;2;20;2;3595;740;4150;79;-33;-1102;-235
1804387;2;20;2;3595;726;4158;-18;-153;-1083;-176
1804397;2;20;2;3595;735;4156;-13;-291;-1065;-97
1804407;2;20;2;3595;759;4161;-46;-362;-1041;-34
1804417;2;20;2;3595;777;4138;-62;-392;-916;1
1804427;2;20;2;3596;815;4100;-10;-380;-706;-30
1804437;2;20;2;3596;825;4065;122;-373;-459;-54
1804447;2;20;2;3596;827;4059;316;-299;-352;-43
1804457;2;20;2;3596;782;4056;480;-16;-383;33
1804467;2;20;2;3596;767;4036;427;209;-465;141
1804477;2;20;2;3596;756;3966;223;176;-527;213
1804487;2;20;2;3596;813;3934;21;69;-405;239
1804497;2;20;2;3596;848;3940;-147;-9;-100;211
1804507;2;20;2;3596;857;3967;-133;-62;259;137
1804517;2;20;2;3596;843;4014;-98;-46;561;38
1804527;2;20;2;3596;810;4074;1;-84;755;-23
1804537;2;20;2;3596;733;4105;120;-129;789;-57
1804547;2;20;2;3596;641;4161;209;-133;778;-53
1804557;2;20;2;3596;594;4133;236;-103;727;-17
1804567;2;20;2;3596;593;4131;207;-112;652;13
1804577;2;20;2;3596;638;4118;136;-125;561;46
1804587;2;20;2;3596;694;4072;67;-96;516;29
1804597;2;20;2;3596;765;4044;51;-53;502;-15
1804607;2;20;2;3596;797;4012;94;-37;453;-60
1804617;2;20;2;3596;813;4008;165;-27;369;-92
1804627;2;20;2;3596;817;3982;110;8;324;-122
1804637;2;20;2;3596;818;3961;36;42;393;-158
1804647;2;20;2;3596;814;3983;69;40;477;-171
1804657;2;20;2;3596;809;4020;132;27;435;-159
1804667;2;20;2;3596;794;4042;162;6;354;-120
1804677;2;20;2;3596;787;4058;79;39;352;-85
1804687;2;20;2;3596;817;4088;81;70;384;-66
1804697;2;20;2;3596;839;4124;92;140;361;-59
1804707;2;20;2;3596;848;4141;49;192;279;-27
1804717;2;20;2;3596;840;4151;8;181;184;7
1804727;2;20;2;3596;812;4185;-49;132;104;38
1804737;2;20;2;3596;802;4197;-81;66;20;74
1804747;2;20;2;3596;796;4206;-92;11;-54;108
1804757;2;20;2;3596;782;4217;-86;-3;-92;153
1804767;2;20;2;3596;761;4211;-105;-41;-120;200
1804777;2;20;2;3596;777;4202;-90;-96;-128;213
1804787;2;20;2;3596;811;4167;-80;-128;-117;232
1804797;2;20;2;3596;845;4128;-57;-104;-61;220
1804807;2;20;2;3596;836;4093;8;-72;-13;205
1804817;2;20;2;3596;822;4068;108;-57;-46;220
1804827;2;20;2;3596;861;4017;84;1;-87;222
1804837;2;20;2;3596;865;3987;69;21;-39;205
1804847;2;20;2;3596;873;3972;78;3;2;201
1804857;2;20;2;3596;896;3966;82;-4;-4;189
1804867;2;20;2;3596;906;3964;16;41;26;177
1804877;2;20;2;3596;847;3969;18;48;65;174
1804887;2;20;2;3596;815;3994;29;-38;61;165
1804897;2;20;2;3596;798;4009;49;-119;28;177
1804907;2;20;2;3596;772;4049;73;-135;-44;208
1804917;2;20;2;3596;730;4082;37;-140;-124;235
1804927;2;20;2;3597;745;4097;-6;-143;-149;245
1804937;2;20;2;3597;740;4107;9;-180;-176;232
1804947;2;20;2;3597;749;4121;94;-180;-272;239
1804957;2;20;2;3597;704;4184;110;-203;-415;210
1804967;2;20;2;3597;721;4189;78;-156;-536;188
1804977;2;20;2;3597;703;4184;37;-98;-543;157
1804987;2;20;2;3597;684;4178;-33;-107;-522;88
1804997;2;20;2;3597;674;4169;-42;-170;-472;31
1805007;2;20;2;3597;683;4165;-10;-240;-417;-7
1805017;2;20;2;3597;692;4167;29;-265;-371;-36
1805027;2;20;2;3597;695;4148;42;-232;-341;-58
1805037;2;20;2;3597;689;4135;88;-236;-291;-81
1805047;2;20;2;3597;655;4123;182;-339;-329;-72
1805057;2;20;2;3597;613;4123;296;-441;-474;-30
1805067;2;20;2;3597;620;4102;338;-445;-567;8
1805077;2;20;2;3597;655;4104;390;-391;-580;8
1805087;2;20;2;3597;685;4129;445;-318;-616;-28
1805097;2;20;2;3597;715;4147;503;-242;-685;-68
1805107;2;20;2;3597;688;4154;447;-212;-816;-111
1805117;2;20;2;3597;651;4161;383;-204;-908;-143
1805127;2;20;2;3597;623;4184;388;-186;-1118;-110
1805137;2;20;2;3597;597;4210;292;-175;-1347;-11
1805147;2;20;2;3597;620;4209;194;-161;-1562;96
1805157;2;20;2;3597;629;4178;71;-232;-1703;208
1805167;2;20;2;3597;667;4173;62;-416;-1829;278
1805177;2;20;2;3597;703;4121;78;-538;-2036;389
1805187;2;20;2;3597;729;4053;66;-610;-2342;495
1805197;2;20;2;3597;766;3967;15;-640;-2698;601
1805207;2;20;2;3597;789;3890;-49;-619;-3037;715
1805217;2;20;2;3597;812;3672;-104;-537;-3393;824
1805227;2;20;2;3597;814;3580;-152;-403;-3587;843
1805237;2;20;2;3597;880;3492;-18;-47;-3465;790
1805247;2;20;2;3597;1033;3506;197;433;-3142;638
1805257;2;20;2;3597;1251;3679;426;1011;-2690;309
1805267;2;20;2;3597;1442;3865;535;1686;-2106;-125
1805277;2;20;2;3597;1495;3979;501;2175;-1508;-558
1805287;2;20;2;3597;1474;4044;361;2187;-1102;-1022
1805297;2;20;2;3597;1289;4219;101;2042;-873;-1367
1805307;2;20;2;3597;1050;4352;-96;1897;-833;-1387
1805317;2;20;2;3597;737;4534;-280;1642;-894;-1189
1805327;2;20;2;3597;553;4621;-426;1303;-950;-705
1805337;2;20;2;3597;511;4569;-494;918;-881;-191
1805347;2;20;2;3597;575;4501;-405;586;-734;203
1805357;2;20;2;3597;801;4284;-141;277;-519;555
1805367;2;20;2;3597;949;4120;133;102;-374;669
1805377;2;20;2;3597;1008;4026;372;2;-364;659
1805387;2;20;2;3597;1056;4015;518;37;-518;620
1805397;2;20;2;3597;1125;3942;534;186;-739;562
1805407;2;20;2;3597;1135;3947;367;129;-991;462
1805417;2;20;2;3597;1074;3978;78;-247;-1274;352
1805427;2;20;2;3598;959;4048;-177;-724;-1586;283
1805437;2;20;2;3598;910;4112;-275;-976;-1741;299
1805447;2;20;2;3598;861;4140;-189;-1220;-1929;399
1805457;2;20;2;3598;856;4177;12;-1460;-2255;640
1805467;2;20;2;3598;954;4128;279;-1420;-2581;882
1805477;2;20;2;3598;1258;4141;501;-1241;-2904;1035
1805487;2;20;2;3598;1313;3854;618;-1240;-3577;1348
1805497;2;20;2;3598;1432;3871;424;-1495;-3731;1165
1805507;2;20;2;3598;1580;3697;402;-1298;-3460;1084
1805517;2;20;2;3598;1674;3581;511;-1040;-3342;923
1805527;2;20;2;3598;1605;3659;330;-1002;-3083;724
1805537;2;20;2;3598;1611;3578;249;-893;-2817;518
1805547;2;20;2;3598;1489;3688;179;-988;-2507;347
1805557;2;20;2;3598;1318;3831;199;-1038;-2311;259
1805567;2;20;2;3598;1184;3879;281;-1206;-2082;201
1805577;2;20;2;3598;1092;4008;197;-1384;-2014;125
1805587;2;20;2;3598;1082;4100;149;-1477;-1972;108
1805597;2;20;2;3598;1085;4144;62;-1570;-1916;61
1805607;2;20;2;3598;1113;4205;88;-1597;-1865;20
1805617;2;20;2;3598;1103;4177;103;-1609;-1757;-21
1805627;2;20;2;3598;1150;4217;170;-1678;-1569;-100
1805637;2;20;2;3598;1241;4175;335;-1627;-1459;-137
1805647;2;20;2;3598;1334;4109;397;-1488;-1477;-191
1805657;2;20;2;3598;1373;4042;486;-1409;-1593;-214
1805667;2;20;2;3598;1332;3992;473;-1313;-1703;-251
1805677;2;20;2;3598;1255;4055;450;-1105;-1829;-314
1805687;2;20;2;3598;1198;4215;391;-703;-1958;-414
1805697;2;20;2;3598;1129;4388;306;-411;-2019;-540
1805707;2;20;2;3598;916;4483;112;-373;-2125;-640
1805717;2;20;2;3598;705;4622;-98;-449;-2369;-632
1805727;2;20;2;3598;516;4777;-354;-410;-2748;-317
1805737;2;20;2;3598;415;4835;-628;-313;-2783;-43
1805747;2;20;2;3598;410;4896;-848;1;-2414;-59
1805757;2;20;2;3598;503;4710;-775;155;-1879;-59
1805767;2;20;2;3598;567;4523;-549;20;-1536;-86
1805777;2;20;2;3598;561;4344;-150;12;-1472;-78
1805787;2;20;2;3598;576;4080;-21;40;-1685;-42
1805797;2;20;2;3598;523;3812;119;-275;-2195;83
1805807;2;20;2;3598;503;3619;45;-406;-2845;268
1805817;2;20;2;3598;504;3447;-134;-268;-3168;440
1805827;2;20;2;3598;538;3279;-272;54;-3173;446
1805837;2;20;2;3598;595;3179;-359;206;-2942;254
1805847;2;20;2;3598;735;3287;-289;223;-2718;-61
1805857;2;20;2;3598;932;3556;-63;165;-2567;-322
1805867;2;20;2;3598;1081;3791;90;182;-2462;-524
1805877;2;20;2;3598;1094;3930;130;147;-2327;-801
1805887;2;20;2;3598;977;4077;171;-35;-2198;-1054
1805897;2;20;2;3598;848;4130;101;-180;-2122;-1189
1805907;2;20;2;3598;752;4124;21;-375;-2021;-1301
1805917;2;20;2;3598;631;4297;-54;-572;-1895;-1345
1805927;2;20;2;3599;540;4418;-79;-530;-1789;-1199
1805937;2;20;2;3599;474;4527;-165;-408;-1655;-1038
1805947;2;20;2;3599;440;4551;-226;-339;-1555;-791
1805957;2;20;2;3599;400;4472;-241;-424;-1457;-522
1805967;2;20;2;3599;391;4323;-140;-496;-1351;-276
1805977;2;20;2;3599;411;4192;21;-454;-1159;-99
1805987;2;20;2;3599;535;4031;177;-270;-944;49
1805997;2;20;2;3599;643;3879;315;-84;-822;132
1806007;2;20;2;3599;756;3784;451;117;-769;155
1806017;2;20;2;3599;786;3726;500;340;-720;119
1806027;2;20;2;3599;773;3685;402;581;-588;33
1806037;2;20;2;3599;706;3710;266;765;-329;-82
1806047;2;20;2;3599;588;3761;169;745;-116;-128
1806057;2;20;2;3599;512;3830;203;503;4;-202
1806067;2;20;2;3599;405;3921;221;367;17;-131
1806077;2;20;2;3599;329;3995;313;347;-75;23
1806087;2;20;2;3599;326;4080;336;431;-211;185
1806097;2;20;2;3599;379;4127;304;505;-273;262
1806107;2;20;2;3599;441;4136;265;418;-394;334
1806117;2;20;2;3599;517;4155;228;306;-636;371
1806127;2;20;2;3599;580;4129;155;266;-891;426
1806137;2;20;2;3599;601;4094;41;260;-1036;415
1806147;2;20;2;3599;578;4100;-45;212;-1066;349
1806157;2;20;2;3599;583;4084;-96;25;-1141;338
1806167;2;20;2;3599;587;4083;-215;-266;-1142;331
1806177;2;20;2;3599;524;4086;-172;-479;-1219;459
1806187;2;20;2;3599;464;4056;-168;-668;-1034;436
1806197;2;20;2;3599;440;4110;-204;-789;-663;406
1806207;2;20;2;3599;409;4050;-79;-791;-227;429
1806217;2;20;2;3599;380;4073;-76;-771;189;423
1806227;2;20;2;3599;419;4002;2;-623;661;400
1806237;2;20;2;3599;478;4047;42;-422;1098;338
1806247;2;20;2;3599;596;4069;52;-97;1427;224
1806257;2;20;2;3599;797;4185;21;349;1593;48
1806267;2;20;2;3599;955;4336;-60;898;1567;-151
1806277;2;20;2;3599;1025;4412;-281;918;1417;-347
1806287;2;20;2;3599;1007;4498;-538;155;1209;-596
1806297;2;20;2;3599;886;4626;-743;-924;1055;-837
1806307;2;20;2;3599;805;4707;-823;-1651;799;-894
1806317;2;20;2;3599;629;4931;-936;-1902;584;-747
1806327;2;20;2;3599;785;5074;-821;-1709;523;-800
1806337;2;20;2;3599;649;5016;-658;-1290;628;-693
1806347;2;20;2;3599;682;4764;-419;-1282;642;-644
1806357;2;20;2;3599;510;4763;-341;-974;698;-366
1806367;2;20;2;3599;764;4457;-466;-477;670;-214
1806377;2;20;2;3599;707;4237;-583;-346;651;205
1806387;2;20;2;3599;725;3937;-698;-502;518;681
1806397;2;20;2;3599;823;3656;-745;-817;467;1106
1806407;2;20;2;3599;905;3535;-625;-1116;532;1418
1806417;2;20;2;3599;1036;3373;-491;-1054;741;1584
1806427;2;20;2;3600;1141;3245;-278;-608;1008;1618
1806437;2;20;2;3600;1238;3165;-184;-186;1171;1530
1806447;2;20;2;3600;1374;3087;-70;41;1227;1383
1806457;2;20;2;3600;1436;3176;2;179;1288;1074
1806467;2;20;2;3600;1460;3308;90;432;1431;690
1806477;2;20;2;3600;1498;3441;143;763;1610;267
1806487;2;20;2;3600;1476;3611;125;873;1686;-159
1806497;2;20;2;3600;1427;3800;95;827;1530;-471
1806507;2;20;2;3600;1359;3972;-23;903;1319;-677
1806517;2;20;2;3600;1242;4122;-246;1058;1391;-769
1806527;2;20;2;3600;1028;4168;-466;910;1752;-794
1806537;2;20;2;3600;1123;4516;-299;527;1976;-747
1806547;2;20;2;3600;1176;4802;-128;676;1828;-400
1806557;2;20;2;3600;1161;4727;-166;799;1623;36
1806567;2;20;2;3600;1134;4789;-285;482;1410;479
1806577;2;20;2;3600;1319;4464;-328;-15;1201;992
1806587;2;20;2;3600;1431;4463;-302;-958;1043;1163
1806597;2;20;2;3600;1517;4393;-145;-1606;747;1347
1806607;2;20;2;3600;1398;4162;31;-1824;515;1473
1806617;2;20;2;3600;1287;4036;160;-1811;262;1529
1806627;2;20;2;3600;1215;3884;304;-1538;5;1632
1806637;2;20;2;3600;1202;3790;292;-1065;-267;1740
1806647;2;20;2;3600;1247;3677;221;-665;-459;1753
1806657;2;20;2;3600;1326;3623;120;-364;-530;1697
1806667;2;20;2;3600;1421;3588;-15;-195;-500;1543
1806677;2;20;2;3600;1522;3587;-177;-124;-285;1251
1806687;2;20;2;3600;1617;3622;-249;-142;20;863
1806697;2;20;2;3600;1611;3735;-217;-86;333;475
1806707;2;20;2;3600;1595;3825;-103;98;507;212
1806717;2;20;2;3600;1522;3904;0;254;498;23
1806727;2;20;2;3600;1469;3969;-14;316;284;-2
1806737;2;20;2;3600;1417;3952;-96;203;73;21
1806747;2;20;2;3600;1435;4039;-231;-96;-80;70
1806757;2;20;2;3600;1404;3978;-382;-424;-202;273
1806767;2;20;2;3600;1429;3931;-331;-775;-21;194
1806777;2;20;2;3600;1449;3943;-432;-1132;268;189
1806787;2;20;2;3600;1557;3944;-294;-1254;636;51
1806797;2;20;2;3600;1701;3921;-214;-1126;906;-249
1806807;2;20;2;3600;1694;4008;-29;-970;942;-461
1806817;2;20;2;3600;1381;3924;-72;-758;487;-377
1806827;2;20;2;3600;1004;3866;-393;-688;417;-269
1806837;2;20;2;3600;716;3871;-342;-629;1018;-74
1806847;2;20;2;3600;639;4023;22;49;2110;-109
1806857;2;20;2;3600;687;4229;386;1335;3192;-227
1806867;2;20;2;3600;966;4422;733;2476;3687;-516
1806877;2;20;2;3600;1095;4475;793;3201;3299;-517
1806887;2;20;2;3600;1119;4230;117;3022;1933;-70
1806897;2;20;2;3600;907;3866;-859;1870;681;371
1806907;2;20;2;3600;638;3564;-1430;422;216;435
1806917;2;20;2;3600;475;3502;-1364;-129;696;286
1806927;2;20;2;3601;457;3469;-823;62;1102;180
1806937;2;20;2;3601;659;3556;-219;426;1016;87
1806947;2;20;2;3601;823;3676;59;733;501;34
1806957;2;20;2;3601;943;3645;72;817;14;51
1806967;2;20;2;3601;1021;3591;-25;731;-28;-115
1806977;2;20;2;3601;1004;3659;84;779;154;-319
1806987;2;20;2;3601;974;3817;163;964;309;-436
1806997;2;20;2;3601;1030;3893;65;1290;459;-345
1807007;2;20;2;3601;1107;4027;3;1694;776;-306
1807017;2;20;2;3601;1176;4161;-63;2100;1007;-157
1807027;2;20;2;3601;1240;4202;-240;2350;1280;-26
1807037;2;20;2;3601;1160;4218;-317;2455;1667;59
1807047;2;20;2;3601;1049;4209;-358;2438;2047;182
1807057;2;20;2;3601;844;4167;-456;2296;2384;358
1807067;2;20;2;3601;696;4127;-497;2073;2700;584
1807077;2;20;2;3601;598;4030;-391;1878;2905;854
1807087;2;20;2;3601;573;3931;-339;1844;2940;1165
1807097;2;20;2;3601;534;3795;-344;1952;2986;1471
1807107;2;20;2;3601;465;3709;-383;2039;3009;1698
1807117;2;20;2;3601;481;3594;-484;2066;2963;1955
1807127;2;20;2;3601;482;3460;-625;2067;2967;2119
1807137;2;20;2;3601;475;3442;-700;2141;3150;2159
1807147;2;20;2;3601;476;3427;-647;2276;3385;2180
1807157;2;20;2;3601;434;3444;-591;2322;3431;2187
1807167;2;20;2;3601;512;3377;-596;2455;3360;2236
1807177;2;20;2;3601;504;3321;-586;2613;3258;2264
1807187;2;20;2;3601;410;3222;-493;2753;2972;2369
1807197;2;20;2;3601;330;3071;-538;2983;2522;2567
1807207;2;20;2;3601;283;2831;-641;3442;2108;2808
1807217;2;20;2;3601;192;2578;-696;4044;1702;3093
1807227;2;20;2;3601;122;2202;-890;4373;1469;3265
1807237;2;20;2;3601;143;2005;-1089;4409;1586;3157
1807247;2;20;2;3601;189;1943;-1095;4447;1858;2843
1807257;2;20;2;3601;113;1954;-1025;4726;2113;2524
1807267;2;20;2;3601;4;1685;-906;5150;2151;2361
1807277;2;20;2;3601;-41;1461;-999;5521;2135;2141
1807287;2;20;2;3601;-180;1391;-853;6141;2212;1988
1807297;2;20;2;3601;-150;1365;-535;7200;2048;1840
1807307;2;20;2;3601;-197;1034;-410;8639;1756;1811
1807317;2;20;2;3601;-206;479;-296;9637;1669;1754
1807327;2;20;2;3601;-264;366;-32;10229;1536;1406
1807337;2;20;2;3601;-401;340;194;10502;1170;1022
1807347;2;20;2;3601;-355;275;205;10356;580;698
1807357;2;20;2;3601;22;467;130;10354;102;115
1807367;2;20;2;3601;643;562;471;10702;-328;-220
1807377;2;20;2;3601;1292;845;223;11632;-1059;-1243
1807387;2;20;2;3601;1875;1123;-414;11793;-1309;-2439
1807397;2;20;2;3601;2155;1314;-859;11719;-469;-4083
1807407;2;20;2;3601;1869;1683;-586;11763;418;-5398
1807417;2;20;2;3601;1234;2392;-753;12045;-231;-4733
1807427;2;20;2;3602;857;3201;-1855;10903;-977;-2368
1807437;2;20;2;3602;1058;3378;-2550;7783;-1338;-247
1807447;2;20;2;3602;1421;3537;-2443;4904;-896;551
1807457;2;20;2;3602;1635;3240;-2171;4180;-127;734
1807467;2;20;2;3602;1713;2648;-2282;4648;222;907
1807477;2;20;2;3602;1740;2060;-2577;4883;144;1079
1807487;2;20;2;3602;1853;1506;-2818;5010;318;823
1807497;2;20;2;3602;1980;1575;-2750;5240;1095;124
1807507;2;20;2;3602;1703;2018;-2185;5468;1991;-683
1807517;2;20;2;3602;1344;2301;-1443;6208;2345;-1248
1807527;2;20;2;3602;1110;2711;-1385;7971;2521;-1882
1807537;2;20;2;3602;851;3137;-1870;8990;2594;-1971
1807547;2;20;2;3602;901;3348;-3010;9560;2673;-2069
1807557;2;20;2;3602;682;3945;-3849;9380;2596;-2162
1807567;2;20;2;3602;481;4275;-4730;8834;2213;-1891
1807577;2;20;2;3602;141;4671;-5581;8025;2433;-1444
1807587;2;20;2;3602;-93;4838;-5712;6374;3174;-566
1807597;2;20;2;3602;15;4903;-5293;4174;3394;549
1807607;2;20;2;3602;254;5038;-4760;2568;3213;1501
1807617;2;20;2;3602;858;4765;-4715;2260;2748;1866
1807627;2;20;2;3602;1393;4475;-5244;2596;2584;1483
1807637;2;20;2;3602;1318;4418;-5917;2493;2697;689
1807647;2;20;2;3602;1145;4336;-6527;2189;3064;-296
1807657;2;20;2;3602;898;4587;-6868;1811;3600;-737
1807667;2;20;2;3602;517;4751;-6639;1201;4282;-779
1807677;2;20;2;3602;672;4870;-6722;378;4796;-420
1807687;2;20;2;3602;755;5318;-6762;-480;5963;-293
1807697;2;20;2;3602;925;5351;-6561;-891;6938;-124
1807707;2;20;2;3602;1190;5230;-6731;-1703;7735;-374
1807717;2;20;2;3602;1543;5122;-6164;-3995;8686;-175
1807727;2;20;2;3602;2845;3822;-5180;-5241;10313;-911
1807737;2;20;2;3602;4450;2709;-4092;-6145;11601;-4012
1807747;2;20;2;3602;4155;3706;-2621;-7039;10223;-5517
1807757;2;20;2;3602;3263;3463;-1646;-6414;5308;-4731
1807767;2;20;2;3602;917;3678;-2580;-5679;599;-2644
1807777;2;20;2;3602;-749;3016;-3743;-3232;-1286;-622
1807787;2;20;2;3602;-1902;2341;-5328;-393;-123;1001
1807797;2;20;2;3602;-2288;1439;-7339;-67;2259;2998
1807807;2;20;2;3602;-1192;846;-8951;-4589;5811;4557
1807817;2;20;2;3602;853;982;-8526;-13179;9118;4951
1807827;2;20;2;3602;3438;2149;-5497;-20301;10099;4298
1807837;2;20;2;3602;6084;3881;-2147;-21875;7526;3618
1807847;2;20;2;3602;7874;5721;652;-18384;2952;3298
1807857;2;20;2;3602;8148;6269;1314;-11781;-996;4013
1807867;2;20;2;3602;7323;5399;525;-5507;-3097;6157
1807877;2;20;2;3602;5452;3457;-1431;-1682;-2773;10589
1807887;2;20;2;3602;3740;291;-3209;-2503;1243;15386
1807897;2;20;2;3602;2702;-1895;-3115;-9540;6673;17714
1807907;2;20;2;3602;3452;-2370;1791;-16761;11824;17905
1807917;2;20;2;3602;4474;-564;8374;-8732;15202;16864
1807927;2;20;2;3603;5754;-1708;4209;1818;11245;16641
1807937;2;20;2;3603;6407;-3621;-1321;-427;8179;13950
1807947;2;20;2;3603;5357;-3054;-1868;-3678;9673;9834
1807957;2;20;2;3603;3986;-1586;321;-4874;10739;6895
1807967;2;20;2;3603;2490;171;2247;-5247;10067;5404
1807977;2;20;2;3603;1299;1594;3505;-4944;7844;5698
1807987;2;20;2;3603;1674;2046;3514;-4074;5027;6605
1807997;2;20;2;3603;2714;2311;2817;-3436;2883;7595
1808007;2;20;2;3603;3897;1824;1924;-3687;1122;8700
1808017;2;20;2;3603;4826;1060;653;-5092;392;8936
1808027;2;20;2;3603;5414;382;594;-7297;961;8425
1808037;2;20;2;3603;5738;-343;1415;-8747;1465;8019
1808047;2;20;2;3603;5669;-875;2243;-9143;1928;7977
1808057;2;20;2;3603;5116;-1487;2324;-8624;1972;8738
1808067;2;20;2;3603;4539;-2191;1811;-7775;2334;9709
1808077;2;20;2;3603;4124;-2394;1572;-6153;4014;9914
1808087;2;20;2;3603;3890;-2153;1563;-4839;5538;9833
1808097;2;20;2;3603;4162;-1804;1524;-4134;6280;9705
1808107;2;20;2;3603;4627;-1572;1047;-4474;6910;9302
1808117;2;20;2;3603;4874;-1388;1281;-6004;8083;8732
1808127;2;20;2;3603;5076;-1354;2257;-7005;8953;7885
1808137;2;20;2;3603;5266;-1052;2989;-7394;8511;7062
1808147;2;20;2;3603;5520;-516;2724;-8706;6476;6793
1808157;2;20;2;3603;6037;-336;1894;-10644;3215;7995
1808167;2;20;2;3603;7172;-1132;826;-12398;-629;11308
1808177;2;20;2;3603;7867;-2496;-459;-10632;-2547;12590
1808187;2;20;2;3603;9202;-4837;-1983;-4881;-1104;9746
1808197;2;20;2;3603;10916;-6261;-2726;-5632;2724;5238
1808207;2;20;2;3603;10275;-7165;-520;-11954;6042;1441
1808217;2;20;2;3603;6340;-4344;5288;-9648;9508;-2056
1808227;2;20;2;3603;4050;-2499;4600;1235;11398;-3005
1808237;2;20;2;3603;3832;-1844;2514;3649;10699;-4161
1808247;2;20;2;3603;3073;-1182;2424;3089;6858;-4295
1808257;2;20;2;3603;1550;-390;1483;1667;1607;-3726
1808267;2;20;2;3603;514;310;754;-1436;-1492;-2240
1808277;2;20;2;3603;-145;775;-269;-6204;-1505;299
1808287;2;20;2;3603;398;604;-271;-7995;1126;1795
1808297;2;20;2;3603;1454;969;531;-7450;5053;2100
1808307;2;20;2;3603;2522;1261;1819;-4712;8116;1258
1808317;2;20;2;3603;3109;1311;2585;-1916;8943;-257
1808327;2;20;2;3603;3145;1200;2723;-1072;7154;-1384
1808337;2;20;2;3603;3052;882;2769;-869;4030;-1905
1808347;2;20;2;3603;2911;469;2846;552;1544;-2270
1808357;2;20;2;3603;2867;-99;2552;2567;-161;-2524
1808367;2;20;2;3603;3116;-806;2204;3156;-1275;-2560
1808377;2;20;2;3603;3909;-1520;2312;2762;-2015;-2596
1808387;2;20;2;3603;4723;-1872;2476;2078;-2484;-2608
1808397;2;20;2;3603;5389;-1793;2480;1247;-2738;-2389
1808407;2;20;2;3603;5603;-1470;2108;774;-2982;-1689
1808417;2;20;2;3603;5158;-728;1119;1232;-2459;69
1808427;2;20;2;3604;5001;-547;259;1405;-1673;2775
1808437;2;20;2;3604;5580;-1204;-153;749;-33;3898
1808447;2;20;2;3604;5837;-1581;398;8;2372;2508
1808457;2;20;2;3604;5066;-853;1572;439;4520;849
1808467;2;20;2;3604;4231;-603;2404;1067;5323;-415
1808477;2;20;2;3604;3575;-627;2882;1405;4467;-831
1808487;2;20;2;3604;3499;-953;3150;1750;3025;-542
1808497;2;20;2;3604;3787;-1071;2925;1362;1597;-597
1808507;2;20;2;3604;4033;-884;2592;596;40;-935
1808517;2;20;2;3604;4031;-590;2271;752;-1010;-1328
1808527;2;20;2;3604;3733;-257;1875;1818;-1240;-1666
1808537;2;20;2;3604;3393;-24;1469;2564;-1123;-1953
1808547;2;20;2;3604;3112;222;1207;2467;-576;-2127
1808557;2;20;2;3604;2989;313;1290;1814;-40;-2016
1808567;2;20;2;3604;2971;258;1569;1376;358;-1683
1808577;2;20;2;3604;3123;42;1822;1278;699;-1279
1808587;2;20;2;3604;3307;-131;2139;1118;763;-1108
1808597;2;20;2;3604;3584;-258;2383;978;45;-882
1808607;2;20;2;3604;3850;-260;2295;1077;-1193;-545
1808617;2;20;2;3604;3862;-243;2097;1243;-2367;-214
1808627;2;20;2;3604;3796;-294;1779;1492;-3254;116
1808637;2;20;2;3604;3772;-298;1169;1681;-3299;333
1808647;2;20;2;3604;3790;-217;864;1573;-2326;439
1808657;2;20;2;3604;3820;-214;1210;1608;-1074;564
1808667;2;20;2;3604;3935;-261;1728;1935;-88;511
1808677;2;20;2;3604;4134;-207;2254;2162;394;317
1808687;2;20;2;3604;4196;-169;2384;2197;314;270
1808697;2;20;2;3604;4175;-145;1988;2393;92;148
1808707;2;20;2;3604;4104;-208;1300;2485;576;-52
1808717;2;20;2;3604;4044;-188;875;2341;1695;-379
1808727;2;20;2;3604;3997;-95;1100;2385;2845;-680
1808737;2;20;2;3604;4047;48;1537;2633;3177;-838
1808747;2;20;2;3604;4035;174;1685;2676;2825;-883
1808757;2;20;2;3604;3934;290;1661;2163;2310;-787
1808767;2;20;2;3604;3882;396;1759;1845;1979;-665
1808777;2;20;2;3604;3901;557;1854;2052;1919;-622
1808787;2;20;2;3604;3932;660;1941;2193;2039;-687
1808797;2;20;2;3604;3956;782;2026;2013;2185;-701
1808807;2;20;2;3604;4052;864;2161;1553;2115;-634
1808817;2;20;2;3604;4021;998;2055;1516;1919;-579
1808827;2;20;2;3604;3891;1028;1740;1712;2013;-661
1808837;2;20;2;3604;3696;1100;1513;1412;2288;-778
1808847;2;20;2;3604;3589;1147;1513;958;2648;-761
1808857;2;20;2;3604;3469;1107;1724;616;2882;-651
1808867;2;20;2;3604;3423;1034;1960;283;2754;-468
1808877;2;20;2;3604;3367;999;2284;61;2323;-300
1808887;2;20;2;3604;3405;955;2479;-72;1651;-114
1808897;2;20;2;3604;3471;871;2344;-266;1030;45
1808907;2;20;2;3604;3558;816;2207;-625;652;151
1808917;2;20;2;3604;3678;785;2331;-715;343;204
1808927;2;20;2;3605;3791;787;2369;-615;133;200
1808937;2;20;2;3605;3821;722;2302;-751;-133;235
1808947;2;20;2;3605;3782;628;2195;-880;-432;340
1808957;2;20;2;3605;3706;565;2151;-953;-867;567
1808967;2;20;2;3605;3670;524;2059;-1033;-1200;835
1808977;2;20;2;3605;3601;502;2034;-1208;-1159;1054
1808987;2;20;2;3605;3561;463;2182;-1440;-752;1203
1808997;2;20;2;3605;3680;433;2437;-1635;-450;1377
1809007;2;20;2;3605;3819;390;2513;-1864;-430;1608
1809017;2;20;2;3605;3989;239;2585;-2080;-675;1768
1809027;2;20;2;3605;4141;69;2675;-2151;-1180;1998
1809037;2;20;2;3605;4238;-182;2563;-2066;-1881;2113
1809047;2;20;2;3605;4125;-391;2435;-1891;-2335;2011
1809057;2;20;2;3605;3896;-599;2462;-1429;-2520;1957
1809067;2;20;2;3605;3736;-812;2339;-852;-2431;1882
1809077;2;20;2;3605;3540;-914;2163;-497;-2044;1764
1809087;2;20;2;3605;3436;-1070;2222;-410;-1525;1614
1809097;2;20;2;3605;3585;-1173;2296;-372;-1048;1391
1809107;2;20;2;3605;3751;-1268;2402;-273;-543;1032
1809117;2;20;2;3605;3694;-1295;2593;245;-161;680
1809127;2;20;2;3605;3638;-1366;2742;922;188;345
1809137;2;20;2;3605;3652;-1378;2783;1443;263;-31
1809147;2;20;2;3605;3531;-1426;2682;1657;-101;-363
1809157;2;20;2;3605;3478;-1470;2501;1790;-702;-624
1809167;2;20;2;3605;3380;-1355;2374;1949;-1447;-968
1809177;2;20;2;3605;3265;-1273;2295;2378;-2141;-1232
1809187;2;20;2;3605;3328;-1296;2254;2736;-2611;-1825
1809197;2;20;2;3605;3620;-1165;2354;2649;-2958;-2577
1809207;2;20;2;3605;3815;-923;2346;2145;-3499;-3172
1809217;2;20;2;3605;4059;-753;2349;1631;-4294;-3650
1809227;2;20;2;3605;4454;-558;2239;1273;-4976;-4141
1809237;2;20;2;3605;4709;-357;1932;956;-5523;-4577
1809247;2;20;2;3605;4786;-238;1801;729;-5773;-4771
1809257;2;20;2;3605;4753;-95;1744;662;-5858;-4685
1809267;2;20;2;3605;4613;-138;1723;536;-5819;-4453
1809277;2;20;2;3605;4495;-70;1972;325;-5717;-4250
1809287;2;20;2;3605;4742;2;2207;300;-5799;-4095
1809297;2;20;2;3605;5006;48;2161;538;-6217;-4175
1809307;2;20;2;3605;5131;-45;1767;1109;-6745;-4297
1809317;2;20;2;3605;4998;-58;1201;1512;-7180;-4681
1809327;2;20;2;3605;4999;-16;802;1674;-7099;-5215
1809337;2;20;2;3605;5299;-60;671;1081;-6398;-6014
1809347;2;20;2;3605;5252;171;651;591;-5569;-7125
1809357;2;20;2;3605;4916;219;369;1016;-4389;-7898
1809367;2;20;2;3605;4481;189;365;1368;-2592;-8219
1809377;2;20;2;3605;4189;355;1013;1339;-1403;-8163
1809387;2;20;2;3605;3977;574;1513;1512;-1584;-7813
1809397;2;20;2;3605;3533;818;1500;2109;-3088;-7344
1809407;2;20;2;3605;2996;939;866;2210;-4888;-6634
1809417;2;20;2;3605;2597;1058;462;1891;-6184;-5658
1809427;2;20;2;3606;2552;1038;421;1739;-6725;-4875
1809437;2;20;2;3606;2940;1177;771;1690;-6205;-4848
1809447;2;20;2;3606;3423;1514;1103;1925;-5648;-5042
1809457;2;20;2;3606;4090;1468;1027;2060;-5615;-5381
1809467;2;20;2;3606;4288;1457;541;1974;-5846;-6194
1809477;2;20;2;3606;4080;1640;-6;1793;-5859;-6927
1809487;2;20;2;3606;3677;1777;-564;1545;-5324;-7295
1809497;2;20;2;3606;3208;1865;-958;1238;-3907;-7389
1809507;2;20;2;3606;2941;1808;-731;460;-2244;-7176
1809517;2;20;2;3606;2915;1785;22;-588;-1089;-6665
1809527;2;20;2;3606;3082;1801;1097;-1173;-909;-5938
1809537;2;20;2;3606;3250;1841;2100;-487;-1468;-5233
1809547;2;20;2;3606;3321;1891;2300;1316;-2457;-4842
1809557;2;20;2;3606;3419;1856;1600;2862;-3207;-4707
1809567;2;20;2;3606;3634;1824;686;3475;-3123;-4673
1809577;2;20;2;3606;3763;1885;213;3829;-2316;-4856
1809587;2;20;2;3606;3814;2026;-11;4190;-1513;-5148
1809597;2;20;2;3606;3751;2179;-40;4083;-1150;-5520
1809607;2;20;2;3606;3571;2324;-70;3612;-1445;-5900
1809617;2;20;2;3606;3190;2651;-110;3189;-1950;-6139
1809627;2;20;2;3606;2829;2930;-255;2892;-2360;-6170
1809637;2;20;2;3606;2519;3169;-534;2631;-2426;-6024
1809647;2;20;2;3606;2297;3272;-678;2226;-2378;-5561
1809657;2;20;2;3606;2165;3375;-577;1484;-2622;-5118
1809667;2;20;2;3606;2152;3450;-358;1090;-2893;-4591
1809677;2;20;2;3606;2329;3429;-59;984;-3191;-4270
1809687;2;20;2;3606;2630;3480;-31;1083;-3754;-4123
1809697;2;20;2;3606;2815;3466;-251;1025;-4365;-3944
1809707;2;20;2;3606;2944;3339;-501;799;-5080;-3786
1809717;2;20;2;3606;2982;3218;-792;594;-5560;-3757
1809727;2;20;2;3606;2924;3065;-949;497;-5933;-3895
1809737;2;20;2;3606;2838;2968;-1225;651;-5855;-4160
1809747;2;20;2;3606;2627;2984;-1372;1155;-5188;-4492
1809757;2;20;2;3606;2595;2894;-1454;1560;-4487;-4790
1809767;2;20;2;3606;2473;2923;-1214;1678;-3803;-5068
1809777;2;20;2;3606;2515;3026;-669;2033;-3238;-5251
1809787;2;20;2;3606;2655;3124;159;2793;-2882;-5344
1809797;2;20;2;3606;2901;3166;481;3836;-3222;-5390
1809807;2;20;2;3606;3014;3064;256;4549;-3952;-5303
1809817;2;20;2;3606;2958;2781;-142;4446;-4976;-5328
1809827;2;20;2;3606;2731;2630;-722;3709;-5749;-5485
1809837;2;20;2;3606;2541;2581;-1274;3216;-5698;-5654
1809847;2;20;2;3606;2408;2610;-1527;3223;-4575;-5981
1809857;2;20;2;3606;2355;2751;-1399;3306;-3042;-6170
1809867;2;20;2;3606;2415;2833;-933;3069;-1717;-6155
1809877;2;20;2;3606;2499;2954;-386;2796;-1088;-6019
1809887;2;20;2;3606;2679;2897;155;3272;-1118;-5771
1809897;2;20;2;3606;2879;2968;370;3853;-1499;-5706
1809907;2;20;2;3606;2910;3225;152;4910;-1741;-5590
1809917;2;20;2;3606;3229;3198;-552;5663;-2079;-5272
1809927;2;20;2;3607;3293;3272;-1449;5999;-2487;-5128
1809937;2;20;2;3607;3242;3466;-2332;6271;-2428;-5155
1809947;2;20;2;3607;2959;3720;-2818;5769;-1495;-5326
1809957;2;20;2;3607;2570;3779;-2680;4644;-418;-5377
1809967;2;20;2;3607;2219;3744;-2388;3098;-242;-5104
1809977;2;20;2;3607;1871;3785;-2225;1451;-1165;-4532
1809987;2;20;2;3607;1539;3932;-2183;1082;-1968;-3883
1809997;2;20;2;3607;1275;3959;-2332;1874;-1927;-3293
1810007;2;20;2;3607;1248;3905;-2572;2969;-669;-2780
1810017;2;20;2;3607;1460;3929;-2577;3551;917;-2250
1810027;2;20;2;3607;1911;3939;-2523;3410;1898;-1765
1810037;2;20;2;3607;2458;3910;-2457;2741;2201;-1499
1810047;2;20;2;3607;2937;3916;-2416;1984;2033;-1509
1810057;2;20;2;3607;3033;3887;-2330;1363;1381;-1332
1810067;2;20;2;3607;2982;3661;-2260;944;282;-1170
1810077;2;20;2;3607;2825;3462;-2428;494;-867;-1265
1810087;2;20;2;3607;2475;3479;-2627;-120;-1430;-1586
1810097;2;20;2;3607;1849;3727;-2617;-478;-1681;-1563
1810107;2;20;2;3607;1402;3527;-2445;-618;-1897;-867
1810117;2;20;2;3607;1118;3323;-2653;-578;-1822;-109
1810127;2;20;2;3607;1176;3011;-2990;-410;-951;727
1810137;2;20;2;3607;1436;2733;-3156;-375;622;1387
1810147;2;20;2;3607;2000;2426;-2819;-650;2062;1984
1810157;2;20;2;3607;2719;2189;-2472;-769;3028;2185
1810167;2;20;2;3607;3048;2231;-2279;-684;3646;2186
1810177;2;20;2;3607;3271;2084;-2063;-439;4007;1895
1810187;2;20;2;3607;3190;2067;-1799;-342;4081;1501
1810197;2;20;2;3607;3260;1931;-1440;-19;3744;1205
1810207;2;20;2;3607;2794;2106;-1146;362;3182;973
1810217;2;20;2;3607;2531;2276;-796;571;2321;881
1810227;2;20;2;3607;2385;2754;-633;719;956;580
1810237;2;20;2;3607;2279;3371;-1020;1673;-1178;110
1810247;2;20;2;3607;2090;3475;-2195;3414;-3149;181
1810257;2;20;2;3607;1571;3092;-3624;5047;-3104;98
1810267;2;20;2;3607;1134;2464;-4444;5180;-1328;127
1810277;2;20;2;3607;817;1984;-4469;3267;1015;-109
1810287;2;20;2;3607;632;1845;-3715;265;2895;-211
1810297;2;20;2;3607;686;1861;-2618;-2697;4195;-24
1810307;2;20;2;3607;901;1930;-1484;-4769;4813;285
1810317;2;20;2;3607;956;2307;-636;-5024;4787;484
1810327;2;20;2;3607;882;2974;-21;-3557;4114;460
1810337;2;20;2;3607;651;3483;29;-1846;2543;268
1810347;2;20;2;3607;618;3822;-221;-629;806;-475
1810357;2;20;2;3607;514;4408;-580;550;-955;-1281
1810367;2;20;2;3607;469;4717;-1193;2280;-2397;-1530
1810377;2;20;2;3607;430;4932;-2069;4169;-3886;-1553
1810387;2;20;2;3607;683;4615;-3273;5134;-4830;-1618
1810397;2;20;2;3607;997;4284;-4203;4620;-4996;-2053
1810407;2;20;2;3607;1372;3923;-4596;3184;-4696;-2692
1810417;2;20;2;3607;1598;3544;-4604;1877;-4521;-3148
1810427;2;20;2;3608;1879;3288;-4555;1074;-4630;-3526
1810437;2;20;2;3608;2096;3218;-4469;345;-5076;-3713
1810447;2;20;2;3608;2284;3261;-4460;-417;-5598;-3944
1810457;2;20;2;3608;2191;3623;-4107;-909;-6079;-4230
1810467;2;20;2;3608;1859;4178;-3683;-621;-6811;-3968
1810477;2;20;2;3608;1650;4553;-3733;610;-7681;-3287
1810487;2;20;2;3608;1608;4755;-4262;2287;-8156;-2740
1810497;2;20;2;3608;1655;4644;-5077;3740;-7826;-2432
1810507;2;20;2;3608;1821;4203;-5742;4236;-6732;-2283
1810517;2;20;2;3608;2149;3757;-6479;2920;-5129;-2793
1810527;2;20;2;3608;2675;3299;-6326;563;-3349;-3698
1810537;2;20;2;3608;2822;3450;-5682;-935;-1670;-5121
1810547;2;20;2;3608;2763;3343;-5024;-2439;-534;-5931
1810557;2;20;2;3608;2465;3253;-4129;-3870;459;-6764
1810567;2;20;2;3608;1715;3508;-2992;-5323;1178;-7271
1810577;2;20;2;3608;1147;3822;-1893;-5777;1232;-7078
1810587;2;20;2;3608;592;4393;-1272;-4994;996;-6485
1810597;2;20;2;3608;389;4698;-885;-2736;723;-5520
1810607;2;20;2;3608;380;4875;-941;10;400;-4668
1810617;2;20;2;3608;639;4837;-1752;2373;88;-4099
1810627;2;20;2;3608;964;4535;-2558;2955;439;-4104
1810637;2;20;2;3608;1195;4292;-3024;2512;1171;-4544
1810647;2;20;2;3608;1331;4189;-2907;2082;2051;-5249
1810657;2;20;2;3608;1178;4190;-2451;2198;2871;-5912
1810667;2;20;2;3608;939;4130;-2106;2419;3229;-6429
1810677;2;20;2;3608;545;4012;-1910;2678;3218;-6653
1810687;2;20;2;3608;218;3756;-1961;2668;2973;-6504
1810697;2;20;2;3608;15;3546;-2044;2238;2669;-6162
1810707;2;20;2;3608;-971;3541;-2393;672;2460;-4306
1810717;2;20;2;3608;-291;2929;-2280;-1003;2074;-4556
1810727;2;20;2;3608;-299;3729;-1802;-422;2338;-4259
1810737;2;20;2;3608;138;3654;-2083;1178;2376;-4045
1810747;2;20;2;3608;563;3328;-2442;1894;2614;-4150
1810757;2;20;2;3608;944;3012;-2737;1391;2913;-4817
1810767;2;20;2;3608;813;2949;-2504;351;3256;-5002
1810777;2;20;2;3608;821;2732;-2353;-450;3253;-5749
1810787;2;20;2;3608;471;2646;-2007;-928;3333;-5859
1810797;2;20;2;3608;142;2483;-1710;-1033;3264;-5877
1810807;2;20;2;3608;-206;2463;-1565;-1254;3130;-5594
1810817;2;20;2;3608;-549;2532;-1542;-1498;2984;-5199
1810827;2;20;2;3608;-699;2567;-1592;-1505;2944;-4534
1810837;2;20;2;3608;-679;2666;-1845;-1422;3136;-4047
1810847;2;20;2;3608;-612;2788;-1986;-1418;3472;-3570
1810857;2;20;2;3608;-508;2751;-1932;-1408;3610;-3114
1810867;2;20;2;3608;-415;2657;-2005;-1255;3532;-2769
1810877;2;20;2;3608;-393;2589;-2125;-942;3569;-2488
1810887;2;20;2;3608;-337;2412;-2314;-557;4134;-2344
1810897;2;20;2;3608;-173;2254;-2216;-380;5235;-2424
1810907;2;20;2;3608;-12;2283;-1731;-495;6305;-2776
1810917;2;20;2;3608;75;2494;-1151;-627;6733;-3148
1810927;2;20;2;3609;-20;2642;-766;-1137;6350;-3397
1810937;2;20;2;3609;-178;2679;-670;-1569;5378;-3442
1810947;2;20;2;3609;-437;2765;-859;-1439;4265;-3260
1810957;2;20;2;3609;-716;2768;-1234;-683;3170;-2545
1810967;2;20;2;3609;-994;2702;-1899;203;2864;-1672
1810977;2;20;2;3609;-902;2503;-2445;890;3621;-1097
1810987;2;20;2;3609;-687;2347;-2943;907;5182;-958
1810997;2;20;2;3609;-230;2147;-3033;118;7044;-1178
1811007;2;20;2;3609;217;2212;-2741;-1475;8385;-1781
1811017;2;20;2;3609;437;2354;-2156;-3126;8994;-2336
1811027;2;20;2;3609;620;2487;-1520;-3820;9097;-2920
1811037;2;20;2;3609;609;2701;-881;-3215;8690;-3529
1811047;2;20;2;3609;543;2706;-676;-1856;7839;-3950
1811057;2;20;2;3609;439;2664;-872;-577;6905;-4297
1811067;2;20;2;3609;170;2723;-1228;178;6238;-4438
1811077;2;20;2;3609;-269;2848;-1532;225;5720;-4087
1811087;2;20;2;3609;-460;3021;-1786;77;5256;-3576
1811097;2;20;2;3609;-488;3067;-2190;237;5437;-3046
1811107;2;20;2;3609;-331;2998;-2460;607;6204;-2737
1811117;2;20;2;3609;-75;2957;-2614;730;6989;-2669
1811127;2;20;2;3609;304;2824;-2609;303;7405;-2717
1811137;2;20;2;3609;632;2803;-2535;-502;7531;-2953
1811147;2;20;2;3609;816;2821;-2334;-1385;7725;-3335
1811157;2;20;2;3609;901;2935;-1903;-1938;7983;-3699
1811167;2;20;2;3609;905;3030;-1369;-1782;8231;-4048
1811177;2;20;2;3609;787;3207;-1021;-929;8282;-4307
1811187;2;20;2;3609;617;3376;-983;212;7952;-4257
1811197;2;20;2;3609;501;3418;-1228;1394;7501;-3948
1811207;2;20;2;3609;280;3481;-1573;2322;7301;-3611
1811217;2;20;2;3609;204;3512;-1949;2743;7351;-3300
1811227;2;20;2;3609;171;3482;-2422;2816;7703;-3170
1811237;2;20;2;3609;55;3488;-2938;2742;8634;-3255
1811247;2;20;2;3609;-9;3340;-3110;2438;9552;-3345
1811257;2;20;2;3609;-119;3195;-3063;1742;10301;-3439
1811267;2;20;2;3609;-262;3174;-2886;771;10596;-3507
1811277;2;20;2;3609;-428;3212;-2676;-63;10568;-3444
1811287;2;20;2;3609;-673;3269;-2428;-430;10443;-3389
1811297;2;20;2;3609;-765;3312;-2199;-191;10357;-3345
1811307;2;20;2;3609;-669;3307;-2053;476;10295;-3447
1811317;2;20;2;3609;-267;3301;-1763;1309;9954;-3451
1811327;2;20;2;3609;78;3379;-1526;2759;8607;-3518
1811337;2;20;2;3609;165;3521;-1786;5003;6521;-3537
1811347;2;20;2;3609;178;3515;-2631;6992;4933;-3644
1811357;2;20;2;3609;81;3561;-3458;8069;4439;-3750
1811367;2;20;2;3609;-139;3619;-4023;8043;4758;-3341
1811377;2;20;2;3609;-173;3433;-4348;6467;5474;-2330
1811387;2;20;2;3609;21;3078;-4858;1931;5790;-1132
1811397;2;20;2;3609;405;3583;-4186;-2034;5957;-263
1811407;2;20;2;3609;980;3735;-3074;-3097;5764;203
1811417;2;20;2;3609;1407;3798;-2076;-1549;4782;162
1811427;2;20;2;3610;1667;3705;-1899;858;2643;-85
1811437;2;20;2;3610;1494;3332;-2726;2506;699;-146
1811447;2;20;2;3610;1395;2732;-3542;2861;-593;-529
1811457;2;20;2;3610;981;2750;-3763;2941;-1228;-988
1811467;2;20;2;3610;973;2477;-3833;3374;-1298;-989
1811477;2;20;2;3610;1216;2055;-3837;3120;-790;-850
1811487;2;20;2;3610;1677;1678;-3537;2515;-397;-766
1811497;2;20;2;3610;1996;1719;-3106;2040;-7;-866
1811507;2;20;2;3610;2358;1661;-2777;2458;515;-861
1811517;2;20;2;3610;2555;1637;-2857;2772;954;-1282
1811527;2;20;2;3610;2400;1638;-2958;3109;1516;-1722
1811537;2;20;2;3610;2107;1621;-3058;3384;2264;-2213
1811547;2;20;2;3610;1857;1664;-3066;3787;3057;-2666
1811557;2;20;2;3610;1662;1740;-3049;4067;3632;-2965
1811567;2;20;2;3610;1440;1849;-3019;4102;3945;-3096
1811577;2;20;2;3610;1297;2010;-3038;3926;3872;-3115
1811587;2;20;2;3610;1092;2251;-3060;3662;3658;-3013
1811597;2;20;2;3610;990;2429;-3007;3704;3310;-2721
1811607;2;20;2;3610;923;2455;-3109;3568;2840;-2435
1811617;2;20;2;3610;905;2554;-3365;2826;2325;-2180
1811627;2;20;2;3610;883;2570;-3611;2229;2109;-1892
1811637;2;20;2;3610;697;2588;-3678;1433;2079;-1552
1811647;2;20;2;3610;592;2510;-3473;521;2017;-1076
1811657;2;20;2;3610;636;2424;-3270;-449;1828;-653
1811667;2;20;2;3610;846;2416;-3168;-1106;1559;-363
1811677;2;20;2;3610;1042;2383;-3077;-1147;1327;-224
1811687;2;20;2;3610;1186;2255;-2867;-1031;919;-92
1811697;2;20;2;3610;1237;2199;-2690;-1046;318;-26
1811707;2;20;2;3610;1277;2190;-2505;-1075;-436;72
1811717;2;20;2;3610;1293;2257;-2656;-723;-1001;174
1811727;2;20;2;3610;1295;2266;-2961;84;-947;318
1811737;2;20;2;3610;1246;2185;-3116;511;-504;285
1811747;2;20;2;3610;1456;1975;-3236;284;-301;187
1811757;2;20;2;3610;1397;2185;-3315;-177;12;104
1811767;2;20;2;3610;1622;2071;-3301;67;477;-75
1811777;2;20;2;3610;1704;2122;-3331;-65;532;-287
1811787;2;20;2;3610;1706;2084;-3221;-449;438;-565
1811797;2;20;2;3610;1580;2176;-3068;-581;460;-828
1811807;2;20;2;3610;1479;2245;-2996;-265;620;-1118
1811817;2;20;2;3610;1361;2300;-3015;169;735;-1308
1811827;2;20;2;3610;1304;2357;-3024;590;748;-1371
1811837;2;20;2;3610;1216;2430;-3016;729;631;-1232
1811847;2;20;2;3610;1202;2537;-3025;537;480;-979
1811857;2;20;2;3610;1221;2596;-3057;294;453;-726
1811867;2;20;2;3610;1250;2649;-3094;163;499;-530
1811877;2;20;2;3610;1283;2653;-3137;-23;570;-359
1811887;2;20;2;3610;1334;2599;-3185;-458;705;-325
1811897;2;20;2;3610;1355;2609;-3085;-952;758;-375
1811907;2;20;2;3610;1315;2560;-3020;-1299;627;-393
1811917;2;20;2;3610;1226;2553;-2889;-1449;400;-476
